File: Fig 4/Fig 3b CV surface light/CV_surface_light_10.csv
Sept. 26, 2024   14:57:10
Cyclic Voltammetry
File: c:\users\secm\desktop\data\lmxlm2\+12 2319-1\26-09-2024 - lamp inside cage\region 2\+12 2319-1 fto cv_cells_light_surface_20_10.csv
Data Source:  Experiment
Instrument Model:  CHI920C
Ref. Electrode:
Header:
Note:

Init E (V) = -0.5
High E (V) = 0.5
Low E (V) = -0.5
Init P/N = P
Scan Rate (V/s) = 0.05
Segment = 2
Sample Interval (V) = 0.001
Quiet Time (sec) = 10
Sensitivity (A/V) = 1e-7

Results:

Channel 1:
Segment 1:
Ep = 0.134V
ip = 1.715e-8A
Ah = 7.301e-9C

Segment 2:
Ep = -0.053V
ip = -1.098e-9A
Ah = -1.640e-9C

Potential/V, Current/A

-0.500, -1.797e-9
-0.498, -1.627e-9
-0.496, -1.559e-9
-0.494, -1.502e-9
-0.492, -1.450e-9
-0.490, -1.409e-9
-0.488, -1.370e-9
-0.486, -1.335e-9
-0.484, -1.303e-9
-0.482, -1.273e-9
-0.480, -1.237e-9
-0.478, -1.208e-9
-0.476, -1.180e-9
-0.474, -1.155e-9
-0.472, -1.129e-9
-0.470, -1.103e-9
-0.468, -1.081e-9
-0.466, -1.058e-9
-0.464, -1.036e-9
-0.462, -1.012e-9
-0.460, -9.882e-10
-0.458, -9.644e-10
-0.456, -9.440e-10
-0.454, -9.231e-10
-0.452, -9.026e-10
-0.450, -8.827e-10
-0.448, -8.637e-10
-0.446, -8.467e-10
-0.444, -8.287e-10
-0.442, -8.114e-10
-0.440, -7.950e-10
-0.438, -7.776e-10
-0.436, -7.578e-10
-0.434, -7.396e-10
-0.432, -7.228e-10
-0.430, -7.045e-10
-0.428, -6.891e-10
-0.426, -6.725e-10
-0.424, -6.566e-10
-0.422, -6.401e-10
-0.420, -6.222e-10
-0.418, -6.084e-10
-0.416, -5.925e-10
-0.414, -5.773e-10
-0.412, -5.654e-10
-0.410, -5.478e-10
-0.408, -5.313e-10
-0.406, -5.145e-10
-0.404, -4.958e-10
-0.402, -4.783e-10
-0.400, -4.646e-10
-0.398, -4.497e-10
-0.396, -4.377e-10
-0.394, -4.223e-10
-0.392, -4.050e-10
-0.390, -3.937e-10
-0.388, -3.785e-10
-0.386, -3.653e-10
-0.384, -3.518e-10
-0.382, -3.387e-10
-0.380, -3.261e-10
-0.378, -3.133e-10
-0.376, -2.982e-10
-0.374, -2.862e-10
-0.372, -2.702e-10
-0.370, -2.535e-10
-0.368, -2.413e-10
-0.366, -2.273e-10
-0.364, -2.127e-10
-0.362, -2.012e-10
-0.360, -1.876e-10
-0.358, -1.772e-10
-0.356, -1.629e-10
-0.354, -1.489e-10
-0.352, -1.371e-10
-0.350, -1.237e-10
-0.348, -1.132e-10
-0.346, -1.006e-10
-0.344, -8.906e-11
-0.342, -7.678e-11
-0.340, -6.566e-11
-0.338, -5.046e-11
-0.336, -3.856e-11
-0.334, -2.482e-11
-0.332, -1.156e-11
-0.330, 1.306e-12
-0.328, 1.525e-11
-0.326, 2.724e-11
-0.324, 3.932e-11
-0.322, 5.053e-11
-0.320, 6.282e-11
-0.318, 7.442e-11
-0.316, 8.436e-11
-0.314, 9.811e-11
-0.312, 1.106e-10
-0.310, 1.219e-10
-0.308, 1.319e-10
-0.306, 1.462e-10
-0.304, 1.555e-10
-0.302, 1.655e-10
-0.300, 1.750e-10
-0.298, 1.850e-10
-0.296, 1.985e-10
-0.294, 2.090e-10
-0.292, 2.227e-10
-0.290, 2.354e-10
-0.288, 2.461e-10
-0.286, 2.583e-10
-0.284, 2.686e-10
-0.282, 2.806e-10
-0.280, 2.907e-10
-0.278, 3.030e-10
-0.276, 3.150e-10
-0.274, 3.248e-10
-0.272, 3.334e-10
-0.270, 3.448e-10
-0.268, 3.550e-10
-0.266, 3.667e-10
-0.264, 3.778e-10
-0.262, 3.874e-10
-0.260, 3.981e-10
-0.258, 4.079e-10
-0.256, 4.167e-10
-0.254, 4.276e-10
-0.252, 4.385e-10
-0.250, 4.509e-10
-0.248, 4.636e-10
-0.246, 4.759e-10
-0.244, 4.889e-10
-0.242, 5.010e-10
-0.240, 5.114e-10
-0.238, 5.209e-10
-0.236, 5.321e-10
-0.234, 5.424e-10
-0.232, 5.525e-10
-0.230, 5.637e-10
-0.228, 5.741e-10
-0.226, 5.835e-10
-0.224, 5.929e-10
-0.222, 6.050e-10
-0.220, 6.125e-10
-0.218, 6.237e-10
-0.216, 6.328e-10
-0.214, 6.410e-10
-0.212, 6.511e-10
-0.210, 6.607e-10
-0.208, 6.701e-10
-0.206, 6.809e-10
-0.204, 6.862e-10
-0.202, 7.001e-10
-0.200, 7.101e-10
-0.198, 7.208e-10
-0.196, 7.303e-10
-0.194, 7.396e-10
-0.192, 7.480e-10
-0.190, 7.582e-10
-0.188, 7.686e-10
-0.186, 7.775e-10
-0.184, 7.880e-10
-0.182, 7.952e-10
-0.180, 8.056e-10
-0.178, 8.137e-10
-0.176, 8.225e-10
-0.174, 8.340e-10
-0.172, 8.435e-10
-0.170, 8.536e-10
-0.168, 8.628e-10
-0.166, 8.700e-10
-0.164, 8.806e-10
-0.162, 8.897e-10
-0.160, 9.005e-10
-0.158, 9.111e-10
-0.156, 9.196e-10
-0.154, 9.306e-10
-0.152, 9.395e-10
-0.150, 9.495e-10
-0.148, 9.592e-10
-0.146, 9.698e-10
-0.144, 9.773e-10
-0.142, 9.867e-10
-0.140, 9.963e-10
-0.138, 1.005e-9
-0.136, 1.015e-9
-0.134, 1.025e-9
-0.132, 1.035e-9
-0.130, 1.044e-9
-0.128, 1.052e-9
-0.126, 1.063e-9
-0.124, 1.072e-9
-0.122, 1.081e-9
-0.120, 1.091e-9
-0.118, 1.100e-9
-0.116, 1.110e-9
-0.114, 1.118e-9
-0.112, 1.129e-9
-0.110, 1.138e-9
-0.108, 1.148e-9
-0.106, 1.159e-9
-0.104, 1.169e-9
-0.102, 1.187e-9
-0.100, 1.194e-9
-0.098, 1.205e-9
-0.096, 1.217e-9
-0.094, 1.228e-9
-0.092, 1.239e-9
-0.090, 1.250e-9
-0.088, 1.261e-9
-0.086, 1.272e-9
-0.084, 1.284e-9
-0.082, 1.296e-9
-0.080, 1.309e-9
-0.078, 1.319e-9
-0.076, 1.330e-9
-0.074, 1.344e-9
-0.072, 1.358e-9
-0.070, 1.372e-9
-0.068, 1.384e-9
-0.066, 1.398e-9
-0.064, 1.410e-9
-0.062, 1.427e-9
-0.060, 1.440e-9
-0.058, 1.454e-9
-0.056, 1.470e-9
-0.054, 1.481e-9
-0.052, 1.496e-9
-0.050, 1.509e-9
-0.048, 1.523e-9
-0.046, 1.538e-9
-0.044, 1.555e-9
-0.042, 1.572e-9
-0.040, 1.587e-9
-0.038, 1.602e-9
-0.036, 1.620e-9
-0.034, 1.635e-9
-0.032, 1.652e-9
-0.030, 1.671e-9
-0.028, 1.689e-9
-0.026, 1.709e-9
-0.024, 1.727e-9
-0.022, 1.745e-9
-0.020, 1.764e-9
-0.018, 1.785e-9
-0.016, 1.804e-9
-0.014, 1.826e-9
-0.012, 1.845e-9
-0.010, 1.868e-9
-0.008, 1.889e-9
-0.006, 1.913e-9
-0.004, 1.936e-9
-0.002, 1.958e-9
0.000, 1.976e-9
0.002, 2.000e-9
0.004, 2.023e-9
0.006, 2.050e-9
0.008, 2.075e-9
0.010, 2.097e-9
0.012, 2.123e-9
0.014, 2.149e-9
0.016, 2.179e-9
0.018, 2.207e-9
0.020, 2.237e-9
0.022, 2.264e-9
0.024, 2.295e-9
0.026, 2.324e-9
0.028, 2.356e-9
0.030, 2.388e-9
0.032, 2.421e-9
0.034, 2.455e-9
0.036, 2.489e-9
0.038, 2.524e-9
0.040, 2.559e-9
0.042, 2.593e-9
0.044, 2.633e-9
0.046, 2.674e-9
0.048, 2.716e-9
0.050, 2.758e-9
0.052, 2.800e-9
0.054, 2.844e-9
0.056, 2.890e-9
0.058, 2.938e-9
0.060, 2.985e-9
0.062, 3.039e-9
0.064, 3.087e-9
0.066, 3.142e-9
0.068, 3.204e-9
0.070, 3.262e-9
0.072, 3.320e-9
0.074, 3.384e-9
0.076, 3.451e-9
0.078, 3.520e-9
0.080, 3.585e-9
0.082, 3.663e-9
0.084, 3.742e-9
0.086, 3.820e-9
0.088, 3.906e-9
0.090, 3.988e-9
0.092, 4.077e-9
0.094, 4.178e-9
0.096, 4.281e-9
0.098, 4.397e-9
0.100, 4.540e-9
0.102, 4.738e-9
0.104, 5.019e-9
0.106, 5.401e-9
0.108, 5.905e-9
0.110, 6.492e-9
0.112, 7.177e-9
0.114, 7.809e-9
0.116, 8.446e-9
0.118, 9.274e-9
0.120, 1.021e-8
0.122, 1.088e-8
0.124, 1.095e-8
0.126, 1.110e-8
0.128, 1.270e-8
0.130, 1.546e-8
0.132, 1.831e-8
0.134, 1.948e-8
0.136, 1.824e-8
0.138, 1.545e-8
0.140, 1.228e-8
0.142, 9.582e-9
0.144, 7.692e-9
0.146, 6.524e-9
0.148, 5.823e-9
0.150, 5.387e-9
0.152, 5.097e-9
0.154, 4.893e-9
0.156, 4.751e-9
0.158, 4.649e-9
0.160, 4.565e-9
0.162, 4.502e-9
0.164, 4.446e-9
0.166, 4.406e-9
0.168, 4.371e-9
0.170, 4.345e-9
0.172, 4.325e-9
0.174, 4.308e-9
0.176, 4.294e-9
0.178, 4.286e-9
0.180, 4.275e-9
0.182, 4.272e-9
0.184, 4.270e-9
0.186, 4.265e-9
0.188, 4.263e-9
0.190, 4.262e-9
0.192, 4.262e-9
0.194, 4.265e-9
0.196, 4.267e-9
0.198, 4.271e-9
0.200, 4.276e-9
0.202, 4.280e-9
0.204, 4.284e-9
0.206, 4.283e-9
0.208, 4.293e-9
0.210, 4.300e-9
0.212, 4.306e-9
0.214, 4.312e-9
0.216, 4.320e-9
0.218, 4.327e-9
0.220, 4.337e-9
0.222, 4.344e-9
0.224, 4.354e-9
0.226, 4.363e-9
0.228, 4.374e-9
0.230, 4.383e-9
0.232, 4.393e-9
0.234, 4.401e-9
0.236, 4.414e-9
0.238, 4.424e-9
0.240, 4.433e-9
0.242, 4.443e-9
0.244, 4.451e-9
0.246, 4.463e-9
0.248, 4.474e-9
0.250, 4.485e-9
0.252, 4.496e-9
0.254, 4.507e-9
0.256, 4.517e-9
0.258, 4.526e-9
0.260, 4.539e-9
0.262, 4.550e-9
0.264, 4.560e-9
0.266, 4.571e-9
0.268, 4.584e-9
0.270, 4.595e-9
0.272, 4.608e-9
0.274, 4.619e-9
0.276, 4.632e-9
0.278, 4.645e-9
0.280, 4.655e-9
0.282, 4.664e-9
0.284, 4.675e-9
0.286, 4.687e-9
0.288, 4.698e-9
0.290, 4.709e-9
0.292, 4.720e-9
0.294, 4.732e-9
0.296, 4.742e-9
0.298, 4.751e-9
0.300, 4.765e-9
0.302, 4.777e-9
0.304, 4.787e-9
0.306, 4.798e-9
0.308, 4.821e-9
0.310, 4.824e-9
0.312, 4.833e-9
0.314, 4.845e-9
0.316, 4.857e-9
0.318, 4.866e-9
0.320, 4.877e-9
0.322, 4.886e-9
0.324, 4.897e-9
0.326, 4.907e-9
0.328, 4.916e-9
0.330, 4.925e-9
0.332, 4.935e-9
0.334, 4.945e-9
0.336, 4.956e-9
0.338, 4.966e-9
0.340, 4.976e-9
0.342, 4.985e-9
0.344, 4.995e-9
0.346, 5.000e-9
0.348, 5.012e-9
0.350, 5.021e-9
0.352, 5.030e-9
0.354, 5.039e-9
0.356, 5.048e-9
0.358, 5.054e-9
0.360, 5.063e-9
0.362, 5.071e-9
0.364, 5.079e-9
0.366, 5.092e-9
0.368, 5.099e-9
0.370, 5.110e-9
0.372, 5.114e-9
0.374, 5.121e-9
0.376, 5.128e-9
0.378, 5.137e-9
0.380, 5.146e-9
0.382, 5.154e-9
0.384, 5.158e-9
0.386, 5.165e-9
0.388, 5.172e-9
0.390, 5.180e-9
0.392, 5.186e-9
0.394, 5.192e-9
0.396, 5.200e-9
0.398, 5.204e-9
0.400, 5.212e-9
0.402, 5.220e-9
0.404, 5.227e-9
0.406, 5.233e-9
0.408, 5.240e-9
0.410, 5.228e-9
0.412, 5.247e-9
0.414, 5.256e-9
0.416, 5.266e-9
0.418, 5.272e-9
0.420, 5.278e-9
0.422, 5.287e-9
0.424, 5.292e-9
0.426, 5.297e-9
0.428, 5.307e-9
0.430, 5.313e-9
0.432, 5.321e-9
0.434, 5.329e-9
0.436, 5.337e-9
0.438, 5.344e-9
0.440, 5.351e-9
0.442, 5.357e-9
0.444, 5.367e-9
0.446, 5.373e-9
0.448, 5.380e-9
0.450, 5.388e-9
0.452, 5.395e-9
0.454, 5.404e-9
0.456, 5.413e-9
0.458, 5.415e-9
0.460, 5.427e-9
0.462, 5.434e-9
0.464, 5.442e-9
0.466, 5.452e-9
0.468, 5.462e-9
0.470, 5.471e-9
0.472, 5.480e-9
0.474, 5.487e-9
0.476, 5.501e-9
0.478, 5.508e-9
0.480, 5.516e-9
0.482, 5.525e-9
0.484, 5.535e-9
0.486, 5.546e-9
0.488, 5.554e-9
0.490, 5.565e-9
0.492, 5.577e-9
0.494, 5.590e-9
0.496, 5.600e-9
0.498, 5.612e-9
0.500, 5.520e-9
0.498, 4.890e-9
0.496, 4.605e-9
0.494, 4.396e-9
0.492, 4.231e-9
0.490, 4.083e-9
0.488, 3.963e-9
0.486, 3.854e-9
0.484, 3.757e-9
0.482, 3.664e-9
0.480, 3.579e-9
0.478, 3.505e-9
0.476, 3.431e-9
0.474, 3.360e-9
0.472, 3.299e-9
0.470, 3.241e-9
0.468, 3.180e-9
0.466, 3.123e-9
0.464, 3.073e-9
0.462, 3.022e-9
0.460, 2.975e-9
0.458, 2.929e-9
0.456, 2.886e-9
0.454, 2.840e-9
0.452, 2.800e-9
0.450, 2.759e-9
0.448, 2.719e-9
0.446, 2.676e-9
0.444, 2.637e-9
0.442, 2.598e-9
0.440, 2.561e-9
0.438, 2.527e-9
0.436, 2.489e-9
0.434, 2.455e-9
0.432, 2.422e-9
0.430, 2.387e-9
0.428, 2.353e-9
0.426, 2.318e-9
0.424, 2.285e-9
0.422, 2.253e-9
0.420, 2.221e-9
0.418, 2.189e-9
0.416, 2.156e-9
0.414, 2.125e-9
0.412, 2.097e-9
0.410, 2.072e-9
0.408, 2.044e-9
0.406, 2.013e-9
0.404, 1.982e-9
0.402, 1.950e-9
0.400, 1.921e-9
0.398, 1.892e-9
0.396, 1.864e-9
0.394, 1.833e-9
0.392, 1.804e-9
0.390, 1.775e-9
0.388, 1.747e-9
0.386, 1.721e-9
0.384, 1.693e-9
0.382, 1.663e-9
0.380, 1.634e-9
0.378, 1.607e-9
0.376, 1.582e-9
0.374, 1.555e-9
0.372, 1.528e-9
0.370, 1.503e-9
0.368, 1.478e-9
0.366, 1.453e-9
0.364, 1.424e-9
0.362, 1.398e-9
0.360, 1.371e-9
0.358, 1.347e-9
0.356, 1.320e-9
0.354, 1.294e-9
0.352, 1.270e-9
0.350, 1.246e-9
0.348, 1.221e-9
0.346, 1.194e-9
0.344, 1.169e-9
0.342, 1.146e-9
0.340, 1.123e-9
0.338, 1.100e-9
0.336, 1.077e-9
0.334, 1.053e-9
0.332, 1.030e-9
0.330, 1.006e-9
0.328, 9.861e-10
0.326, 9.637e-10
0.324, 9.403e-10
0.322, 9.178e-10
0.320, 8.940e-10
0.318, 8.716e-10
0.316, 8.503e-10
0.314, 8.257e-10
0.312, 8.031e-10
0.310, 7.829e-10
0.308, 7.613e-10
0.306, 7.349e-10
0.304, 7.168e-10
0.302, 6.937e-10
0.300, 6.730e-10
0.298, 6.529e-10
0.296, 6.327e-10
0.294, 6.140e-10
0.292, 5.925e-10
0.290, 5.724e-10
0.288, 5.516e-10
0.286, 5.316e-10
0.284, 5.128e-10
0.282, 4.926e-10
0.280, 4.709e-10
0.278, 4.502e-10
0.276, 4.278e-10
0.274, 4.089e-10
0.272, 3.924e-10
0.270, 3.726e-10
0.268, 3.567e-10
0.266, 3.378e-10
0.264, 3.187e-10
0.262, 3.023e-10
0.260, 2.851e-10
0.258, 2.694e-10
0.256, 2.530e-10
0.254, 2.343e-10
0.252, 2.135e-10
0.250, 1.970e-10
0.248, 1.796e-10
0.246, 1.651e-10
0.244, 1.503e-10
0.242, 1.358e-10
0.240, 1.215e-10
0.238, 1.059e-10
0.236, 8.875e-11
0.234, 7.325e-11
0.232, 5.707e-11
0.230, 4.352e-11
0.228, 2.860e-11
0.226, 1.378e-11
0.224, -3.763e-12
0.222, -2.150e-11
0.220, -3.652e-11
0.218, -5.231e-11
0.216, -6.537e-11
0.214, -7.921e-11
0.212, -9.491e-11
0.210, -1.092e-10
0.208, -1.228e-10
0.206, -1.359e-10
0.204, -1.455e-10
0.202, -1.621e-10
0.200, -1.758e-10
0.198, -1.922e-10
0.196, -2.082e-10
0.194, -2.185e-10
0.192, -2.318e-10
0.190, -2.481e-10
0.188, -2.631e-10
0.186, -2.800e-10
0.184, -2.960e-10
0.182, -3.086e-10
0.180, -3.234e-10
0.178, -3.367e-10
0.176, -3.486e-10
0.174, -3.637e-10
0.172, -3.771e-10
0.170, -3.929e-10
0.168, -4.050e-10
0.166, -4.200e-10
0.164, -4.346e-10
0.162, -4.472e-10
0.160, -4.638e-10
0.158, -4.804e-10
0.156, -4.957e-10
0.154, -5.133e-10
0.152, -5.288e-10
0.150, -5.456e-10
0.148, -5.618e-10
0.146, -5.770e-10
0.144, -5.923e-10
0.142, -6.075e-10
0.140, -6.213e-10
0.138, -6.377e-10
0.136, -6.550e-10
0.134, -6.707e-10
0.132, -6.874e-10
0.130, -7.028e-10
0.128, -7.185e-10
0.126, -7.361e-10
0.124, -7.543e-10
0.122, -7.730e-10
0.120, -7.906e-10
0.118, -8.057e-10
0.116, -8.227e-10
0.114, -8.390e-10
0.112, -8.561e-10
0.110, -8.734e-10
0.108, -8.914e-10
0.106, -9.120e-10
0.104, -9.294e-10
0.102, -9.547e-10
0.100, -9.716e-10
0.098, -9.919e-10
0.096, -1.013e-9
0.094, -1.036e-9
0.092, -1.055e-9
0.090, -1.075e-9
0.088, -1.095e-9
0.086, -1.116e-9
0.084, -1.136e-9
0.082, -1.159e-9
0.080, -1.178e-9
0.078, -1.201e-9
0.076, -1.225e-9
0.074, -1.249e-9
0.072, -1.273e-9
0.070, -1.297e-9
0.068, -1.319e-9
0.066, -1.343e-9
0.064, -1.366e-9
0.062, -1.393e-9
0.060, -1.415e-9
0.058, -1.440e-9
0.056, -1.467e-9
0.054, -1.495e-9
0.052, -1.525e-9
0.050, -1.550e-9
0.048, -1.575e-9
0.046, -1.604e-9
0.044, -1.632e-9
0.042, -1.659e-9
0.040, -1.686e-9
0.038, -1.713e-9
0.036, -1.747e-9
0.034, -1.775e-9
0.032, -1.805e-9
0.030, -1.835e-9
0.028, -1.866e-9
0.026, -1.898e-9
0.024, -1.930e-9
0.022, -1.960e-9
0.020, -1.993e-9
0.018, -2.026e-9
0.016, -2.055e-9
0.014, -2.087e-9
0.012, -2.118e-9
0.010, -2.151e-9
0.008, -2.180e-9
0.006, -2.213e-9
0.004, -2.244e-9
0.002, -2.273e-9
-0.000, -2.294e-9
-0.002, -2.327e-9
-0.004, -2.358e-9
-0.006, -2.387e-9
-0.008, -2.413e-9
-0.010, -2.439e-9
-0.012, -2.466e-9
-0.014, -2.493e-9
-0.016, -2.519e-9
-0.018, -2.543e-9
-0.020, -2.567e-9
-0.022, -2.591e-9
-0.024, -2.617e-9
-0.026, -2.642e-9
-0.028, -2.668e-9
-0.030, -2.698e-9
-0.032, -2.732e-9
-0.034, -2.762e-9
-0.036, -2.801e-9
-0.038, -2.837e-9
-0.040, -2.873e-9
-0.042, -2.912e-9
-0.044, -2.953e-9
-0.046, -2.974e-9
-0.048, -2.993e-9
-0.050, -3.032e-9
-0.052, -3.071e-9
-0.054, -3.066e-9
-0.056, -3.071e-9
-0.058, -3.045e-9
-0.060, -3.053e-9
-0.062, -3.057e-9
-0.064, -2.991e-9
-0.066, -2.960e-9
-0.068, -2.945e-9
-0.070, -2.956e-9
-0.072, -2.933e-9
-0.074, -2.955e-9
-0.076, -2.929e-9
-0.078, -2.944e-9
-0.080, -2.936e-9
-0.082, -2.939e-9
-0.084, -2.940e-9
-0.086, -2.960e-9
-0.088, -2.969e-9
-0.090, -2.971e-9
-0.092, -2.963e-9
-0.094, -2.972e-9
-0.096, -2.974e-9
-0.098, -3.012e-9
-0.100, -2.992e-9
-0.102, -3.005e-9
-0.104, -2.998e-9
-0.106, -3.029e-9
-0.108, -2.985e-9
-0.110, -2.989e-9
-0.112, -2.989e-9
-0.114, -3.043e-9
-0.116, -2.996e-9
-0.118, -3.047e-9
-0.120, -3.009e-9
-0.122, -3.047e-9
-0.124, -3.052e-9
-0.126, -3.011e-9
-0.128, -3.026e-9
-0.130, -3.037e-9
-0.132, -3.079e-9
-0.134, -3.028e-9
-0.136, -3.029e-9
-0.138, -3.078e-9
-0.140, -3.023e-9
-0.142, -3.038e-9
-0.144, -3.027e-9
-0.146, -3.043e-9
-0.148, -3.018e-9
-0.150, -3.054e-9
-0.152, -3.025e-9
-0.154, -3.115e-9
-0.156, -3.028e-9
-0.158, -3.061e-9
-0.160, -3.067e-9
-0.162, -3.029e-9
-0.164, -3.031e-9
-0.166, -3.048e-9
-0.168, -3.031e-9
-0.170, -3.029e-9
-0.172, -3.035e-9
-0.174, -3.035e-9
-0.176, -3.040e-9
-0.178, -3.059e-9
-0.180, -3.048e-9
-0.182, -3.035e-9
-0.184, -3.029e-9
-0.186, -3.034e-9
-0.188, -3.045e-9
-0.190, -3.031e-9
-0.192, -3.034e-9
-0.194, -3.051e-9
-0.196, -3.037e-9
-0.198, -3.038e-9
-0.200, -3.080e-9
-0.202, -3.055e-9
-0.204, -3.043e-9
-0.206, -3.051e-9
-0.208, -3.054e-9
-0.210, -3.091e-9
-0.212, -3.057e-9
-0.214, -3.051e-9
-0.216, -3.091e-9
-0.218, -3.054e-9
-0.220, -3.065e-9
-0.222, -3.063e-9
-0.224, -3.072e-9
-0.226, -3.093e-9
-0.228, -3.068e-9
-0.230, -3.078e-9
-0.232, -3.071e-9
-0.234, -3.082e-9
-0.236, -3.091e-9
-0.238, -3.090e-9
-0.240, -3.086e-9
-0.242, -3.086e-9
-0.244, -3.100e-9
-0.246, -3.098e-9
-0.248, -3.107e-9
-0.250, -3.102e-9
-0.252, -3.101e-9
-0.254, -3.102e-9
-0.256, -3.133e-9
-0.258, -3.116e-9
-0.260, -3.112e-9
-0.262, -3.119e-9
-0.264, -3.140e-9
-0.266, -3.128e-9
-0.268, -3.155e-9
-0.270, -3.137e-9
-0.272, -3.141e-9
-0.274, -3.140e-9
-0.276, -3.152e-9
-0.278, -3.179e-9
-0.280, -3.148e-9
-0.282, -3.180e-9
-0.284, -3.156e-9
-0.286, -3.172e-9
-0.288, -3.179e-9
-0.290, -3.173e-9
-0.292, -3.193e-9
-0.294, -3.189e-9
-0.296, -3.182e-9
-0.298, -3.184e-9
-0.300, -3.191e-9
-0.302, -3.203e-9
-0.304, -3.201e-9
-0.306, -3.220e-9
-0.308, -3.232e-9
-0.310, -3.224e-9
-0.312, -3.252e-9
-0.314, -3.247e-9
-0.316, -3.260e-9
-0.318, -3.252e-9
-0.320, -3.256e-9
-0.322, -3.257e-9
-0.324, -3.274e-9
-0.326, -3.288e-9
-0.328, -3.269e-9
-0.330, -3.271e-9
-0.332, -3.273e-9
-0.334, -3.281e-9
-0.336, -3.282e-9
-0.338, -3.289e-9
-0.340, -3.296e-9
-0.342, -3.322e-9
-0.344, -3.308e-9
-0.346, -3.340e-9
-0.348, -3.316e-9
-0.350, -3.332e-9
-0.352, -3.330e-9
-0.354, -3.339e-9
-0.356, -3.346e-9
-0.358, -3.361e-9
-0.360, -3.363e-9
-0.362, -3.359e-9
-0.364, -3.376e-9
-0.366, -3.388e-9
-0.368, -3.379e-9
-0.370, -3.390e-9
-0.372, -3.398e-9
-0.374, -3.405e-9
-0.376, -3.409e-9
-0.378, -3.420e-9
-0.380, -3.427e-9
-0.382, -3.420e-9
-0.384, -3.437e-9
-0.386, -3.444e-9
-0.388, -3.444e-9
-0.390, -3.451e-9
-0.392, -3.455e-9
-0.394, -3.460e-9
-0.396, -3.467e-9
-0.398, -3.477e-9
-0.400, -3.480e-9
-0.402, -3.485e-9
-0.404, -3.492e-9
-0.406, -3.499e-9
-0.408, -3.504e-9
-0.410, -3.511e-9
-0.412, -3.519e-9
-0.414, -3.523e-9
-0.416, -3.539e-9
-0.418, -3.536e-9
-0.420, -3.542e-9
-0.422, -3.548e-9
-0.424, -3.555e-9
-0.426, -3.562e-9
-0.428, -3.571e-9
-0.430, -3.580e-9
-0.432, -3.585e-9
-0.434, -3.596e-9
-0.436, -3.600e-9
-0.438, -3.610e-9
-0.440, -3.619e-9
-0.442, -3.628e-9
-0.444, -3.638e-9
-0.446, -3.644e-9
-0.448, -3.653e-9
-0.450, -3.660e-9
-0.452, -3.668e-9
-0.454, -3.677e-9
-0.456, -3.686e-9
-0.458, -3.699e-9
-0.460, -3.703e-9
-0.462, -3.713e-9
-0.464, -3.720e-9
-0.466, -3.729e-9
-0.468, -3.737e-9
-0.470, -3.746e-9
-0.472, -3.752e-9
-0.474, -3.757e-9
-0.476, -3.771e-9
-0.478, -3.775e-9
-0.480, -3.784e-9
-0.482, -3.792e-9
-0.484, -3.805e-9
-0.486, -3.813e-9
-0.488, -3.826e-9
-0.490, -3.831e-9
-0.492, -3.843e-9
-0.494, -3.851e-9
-0.496, -3.864e-9
-0.498, -3.873e-9
-0.499, -3.878e-9