File: Fig 4/Fig 3b CV surface light/CV_surface_light_1.csv
Sept. 26, 2024   14:46:40
Cyclic Voltammetry
File: c:\users\secm\desktop\data\lmxlm2\+12 2319-1\26-09-2024 - lamp inside cage\region 2\+12 2319-1 fto cv_cells_light_surface_20.csv
Data Source:  Experiment
Instrument Model:  CHI920C
Ref. Electrode:
Header:
Note:

Init E (V) = -0.5
High E (V) = 0.5
Low E (V) = -0.5
Init P/N = P
Scan Rate (V/s) = 0.05
Segment = 2
Sample Interval (V) = 0.001
Quiet Time (sec) = 10
Sensitivity (A/V) = 1e-7

Results:

Channel 1:
Segment 1:

Segment 2:

Potential/V, Current/A

-0.500, -3.472e-9
-0.498, -3.300e-9
-0.496, -3.211e-9
-0.494, -3.138e-9
-0.492, -3.074e-9
-0.490, -3.020e-9
-0.488, -2.966e-9
-0.486, -2.918e-9
-0.484, -2.874e-9
-0.482, -2.830e-9
-0.480, -2.787e-9
-0.478, -2.751e-9
-0.476, -2.713e-9
-0.474, -2.676e-9
-0.472, -2.643e-9
-0.470, -2.611e-9
-0.468, -2.577e-9
-0.466, -2.547e-9
-0.464, -2.519e-9
-0.462, -2.489e-9
-0.460, -2.460e-9
-0.458, -2.432e-9
-0.456, -2.404e-9
-0.454, -2.377e-9
-0.452, -2.350e-9
-0.450, -2.322e-9
-0.448, -2.297e-9
-0.446, -2.273e-9
-0.444, -2.249e-9
-0.442, -2.226e-9
-0.440, -2.201e-9
-0.438, -2.178e-9
-0.436, -2.155e-9
-0.434, -2.135e-9
-0.432, -2.113e-9
-0.430, -2.090e-9
-0.428, -2.066e-9
-0.426, -2.048e-9
-0.424, -2.028e-9
-0.422, -2.009e-9
-0.420, -1.983e-9
-0.418, -1.963e-9
-0.416, -1.943e-9
-0.414, -1.924e-9
-0.412, -1.905e-9
-0.410, -1.884e-9
-0.408, -1.866e-9
-0.406, -1.847e-9
-0.404, -1.828e-9
-0.402, -1.807e-9
-0.400, -1.790e-9
-0.398, -1.771e-9
-0.396, -1.754e-9
-0.394, -1.735e-9
-0.392, -1.717e-9
-0.390, -1.697e-9
-0.388, -1.679e-9
-0.386, -1.663e-9
-0.384, -1.648e-9
-0.382, -1.631e-9
-0.380, -1.615e-9
-0.378, -1.598e-9
-0.376, -1.582e-9
-0.374, -1.566e-9
-0.372, -1.549e-9
-0.370, -1.531e-9
-0.368, -1.517e-9
-0.366, -1.501e-9
-0.364, -1.481e-9
-0.362, -1.462e-9
-0.360, -1.446e-9
-0.358, -1.430e-9
-0.356, -1.414e-9
-0.354, -1.399e-9
-0.352, -1.382e-9
-0.350, -1.367e-9
-0.348, -1.351e-9
-0.346, -1.338e-9
-0.344, -1.324e-9
-0.342, -1.307e-9
-0.340, -1.291e-9
-0.338, -1.276e-9
-0.336, -1.262e-9
-0.334, -1.245e-9
-0.332, -1.227e-9
-0.330, -1.211e-9
-0.328, -1.196e-9
-0.326, -1.182e-9
-0.324, -1.165e-9
-0.322, -1.150e-9
-0.320, -1.134e-9
-0.318, -1.119e-9
-0.316, -1.105e-9
-0.314, -1.090e-9
-0.312, -1.076e-9
-0.310, -1.064e-9
-0.308, -1.048e-9
-0.306, -1.030e-9
-0.304, -1.016e-9
-0.302, -9.994e-10
-0.300, -9.822e-10
-0.298, -9.677e-10
-0.296, -9.526e-10
-0.294, -9.384e-10
-0.292, -9.245e-10
-0.290, -9.109e-10
-0.288, -8.944e-10
-0.286, -8.785e-10
-0.284, -8.647e-10
-0.282, -8.536e-10
-0.280, -8.391e-10
-0.278, -8.273e-10
-0.276, -8.133e-10
-0.274, -8.012e-10
-0.272, -7.864e-10
-0.270, -7.716e-10
-0.268, -7.569e-10
-0.266, -7.420e-10
-0.264, -7.268e-10
-0.262, -7.118e-10
-0.260, -6.991e-10
-0.258, -6.842e-10
-0.256, -6.713e-10
-0.254, -6.575e-10
-0.252, -6.430e-10
-0.250, -6.279e-10
-0.248, -6.131e-10
-0.246, -6.006e-10
-0.244, -5.865e-10
-0.242, -5.746e-10
-0.240, -5.625e-10
-0.238, -5.465e-10
-0.236, -5.306e-10
-0.234, -5.145e-10
-0.232, -5.003e-10
-0.230, -4.852e-10
-0.228, -4.697e-10
-0.226, -4.553e-10
-0.224, -4.438e-10
-0.222, -4.308e-10
-0.220, -4.160e-10
-0.218, -4.024e-10
-0.216, -3.880e-10
-0.214, -3.755e-10
-0.212, -3.613e-10
-0.210, -3.474e-10
-0.208, -3.355e-10
-0.206, -3.234e-10
-0.204, -3.138e-10
-0.202, -2.966e-10
-0.200, -2.814e-10
-0.198, -2.663e-10
-0.196, -2.528e-10
-0.194, -2.364e-10
-0.192, -2.225e-10
-0.190, -2.088e-10
-0.188, -1.970e-10
-0.186, -1.827e-10
-0.184, -1.686e-10
-0.182, -1.557e-10
-0.180, -1.423e-10
-0.178, -1.288e-10
-0.176, -1.165e-10
-0.174, -1.026e-10
-0.172, -8.935e-11
-0.170, -7.629e-11
-0.168, -6.459e-11
-0.166, -5.211e-11
-0.164, -3.720e-11
-0.162, -2.121e-11
-0.160, -6.492e-12
-0.158, 7.740e-12
-0.156, 2.148e-11
-0.154, 3.455e-11
-0.152, 4.790e-11
-0.150, 6.106e-11
-0.148, 7.374e-11
-0.146, 8.670e-11
-0.144, 9.840e-11
-0.142, 1.111e-10
-0.140, 1.247e-10
-0.138, 1.383e-10
-0.136, 1.493e-10
-0.134, 1.618e-10
-0.132, 1.742e-10
-0.130, 1.862e-10
-0.128, 1.972e-10
-0.126, 2.125e-10
-0.124, 2.279e-10
-0.122, 2.423e-10
-0.120, 2.544e-10
-0.118, 2.667e-10
-0.116, 2.818e-10
-0.114, 2.934e-10
-0.112, 3.056e-10
-0.110, 3.190e-10
-0.108, 3.318e-10
-0.106, 3.446e-10
-0.104, 3.560e-10
-0.102, 3.758e-10
-0.100, 3.848e-10
-0.098, 3.971e-10
-0.096, 4.089e-10
-0.094, 4.212e-10
-0.092, 4.356e-10
-0.090, 4.511e-10
-0.088, 4.664e-10
-0.086, 4.817e-10
-0.084, 4.957e-10
-0.082, 5.121e-10
-0.080, 5.231e-10
-0.078, 5.373e-10
-0.076, 5.493e-10
-0.074, 5.630e-10
-0.072, 5.771e-10
-0.070, 5.922e-10
-0.068, 6.041e-10
-0.066, 6.164e-10
-0.064, 6.287e-10
-0.062, 6.426e-10
-0.060, 6.545e-10
-0.058, 6.671e-10
-0.056, 6.816e-10
-0.054, 6.941e-10
-0.052, 7.091e-10
-0.050, 7.228e-10
-0.048, 7.362e-10
-0.046, 7.487e-10
-0.044, 7.636e-10
-0.042, 7.762e-10
-0.040, 7.892e-10
-0.038, 8.010e-10
-0.036, 8.168e-10
-0.034, 8.305e-10
-0.032, 8.457e-10
-0.030, 8.600e-10
-0.028, 8.752e-10
-0.026, 8.904e-10
-0.024, 9.049e-10
-0.022, 9.176e-10
-0.020, 9.331e-10
-0.018, 9.485e-10
-0.016, 9.634e-10
-0.014, 9.770e-10
-0.012, 9.906e-10
-0.010, 1.005e-9
-0.008, 1.018e-9
-0.006, 1.034e-9
-0.004, 1.047e-9
-0.002, 1.063e-9
0.000, 1.072e-9
0.002, 1.088e-9
0.004, 1.104e-9
0.006, 1.118e-9
0.008, 1.133e-9
0.010, 1.149e-9
0.012, 1.163e-9
0.014, 1.180e-9
0.016, 1.196e-9
0.018, 1.214e-9
0.020, 1.229e-9
0.022, 1.245e-9
0.024, 1.260e-9
0.026, 1.275e-9
0.028, 1.290e-9
0.030, 1.306e-9
0.032, 1.323e-9
0.034, 1.340e-9
0.036, 1.358e-9
0.038, 1.374e-9
0.040, 1.390e-9
0.042, 1.404e-9
0.044, 1.424e-9
0.046, 1.442e-9
0.048, 1.460e-9
0.050, 1.475e-9
0.052, 1.491e-9
0.054, 1.506e-9
0.056, 1.525e-9
0.058, 1.543e-9
0.060, 1.560e-9
0.062, 1.578e-9
0.064, 1.594e-9
0.066, 1.610e-9
0.068, 1.626e-9
0.070, 1.643e-9
0.072, 1.662e-9
0.074, 1.679e-9
0.076, 1.699e-9
0.078, 1.716e-9
0.080, 1.732e-9
0.082, 1.750e-9
0.084, 1.769e-9
0.086, 1.786e-9
0.088, 1.806e-9
0.090, 1.822e-9
0.092, 1.839e-9
0.094, 1.856e-9
0.096, 1.877e-9
0.098, 1.897e-9
0.100, 1.914e-9
0.102, 1.935e-9
0.104, 1.955e-9
0.106, 1.971e-9
0.108, 1.989e-9
0.110, 2.007e-9
0.112, 2.023e-9
0.114, 2.041e-9
0.116, 2.058e-9
0.118, 2.077e-9
0.120, 2.094e-9
0.122, 2.108e-9
0.124, 2.127e-9
0.126, 2.146e-9
0.128, 2.167e-9
0.130, 2.185e-9
0.132, 2.204e-9
0.134, 2.220e-9
0.136, 2.238e-9
0.138, 2.253e-9
0.140, 2.274e-9
0.142, 2.288e-9
0.144, 2.306e-9
0.146, 2.323e-9
0.148, 2.343e-9
0.150, 2.362e-9
0.152, 2.379e-9
0.154, 2.395e-9
0.156, 2.415e-9
0.158, 2.433e-9
0.160, 2.449e-9
0.162, 2.466e-9
0.164, 2.483e-9
0.166, 2.498e-9
0.168, 2.516e-9
0.170, 2.533e-9
0.172, 2.551e-9
0.174, 2.567e-9
0.176, 2.583e-9
0.178, 2.598e-9
0.180, 2.614e-9
0.182, 2.631e-9
0.184, 2.649e-9
0.186, 2.668e-9
0.188, 2.686e-9
0.190, 2.703e-9
0.192, 2.721e-9
0.194, 2.738e-9
0.196, 2.754e-9
0.198, 2.773e-9
0.200, 2.789e-9
0.202, 2.804e-9
0.204, 2.820e-9
0.206, 2.830e-9
0.208, 2.846e-9
0.210, 2.862e-9
0.212, 2.879e-9
0.214, 2.896e-9
0.216, 2.909e-9
0.218, 2.924e-9
0.220, 2.939e-9
0.222, 2.953e-9
0.224, 2.970e-9
0.226, 2.985e-9
0.228, 3.000e-9
0.230, 3.015e-9
0.232, 3.029e-9
0.234, 3.041e-9
0.236, 3.056e-9
0.238, 3.069e-9
0.240, 3.082e-9
0.242, 3.094e-9
0.244, 3.107e-9
0.246, 3.122e-9
0.248, 3.136e-9
0.250, 3.153e-9
0.252, 3.167e-9
0.254, 3.181e-9
0.256, 3.194e-9
0.258, 3.207e-9
0.260, 3.224e-9
0.262, 3.238e-9
0.264, 3.251e-9
0.266, 3.264e-9
0.268, 3.275e-9
0.270, 3.288e-9
0.272, 3.301e-9
0.274, 3.313e-9
0.276, 3.325e-9
0.278, 3.338e-9
0.280, 3.350e-9
0.282, 3.363e-9
0.284, 3.377e-9
0.286, 3.391e-9
0.288, 3.404e-9
0.290, 3.416e-9
0.292, 3.427e-9
0.294, 3.438e-9
0.296, 3.449e-9
0.298, 3.462e-9
0.300, 3.476e-9
0.302, 3.489e-9
0.304, 3.500e-9
0.306, 3.512e-9
0.308, 3.531e-9
0.310, 3.536e-9
0.312, 3.548e-9
0.314, 3.559e-9
0.316, 3.570e-9
0.318, 3.581e-9
0.320, 3.592e-9
0.322, 3.604e-9
0.324, 3.616e-9
0.326, 3.628e-9
0.328, 3.641e-9
0.330, 3.652e-9
0.332, 3.663e-9
0.334, 3.676e-9
0.336, 3.686e-9
0.338, 3.698e-9
0.340, 3.708e-9
0.342, 3.720e-9
0.344, 3.733e-9
0.346, 3.742e-9
0.348, 3.754e-9
0.350, 3.766e-9
0.352, 3.777e-9
0.354, 3.785e-9
0.356, 3.795e-9
0.358, 3.805e-9
0.360, 3.814e-9
0.362, 3.825e-9
0.364, 3.835e-9
0.366, 3.845e-9
0.368, 3.855e-9
0.370, 3.866e-9
0.372, 3.876e-9
0.374, 3.885e-9
0.376, 3.896e-9
0.378, 3.906e-9
0.380, 3.917e-9
0.382, 3.926e-9
0.384, 3.936e-9
0.386, 3.942e-9
0.388, 3.952e-9
0.390, 3.964e-9
0.392, 3.974e-9
0.394, 3.985e-9
0.396, 3.995e-9
0.398, 4.001e-9
0.400, 4.010e-9
0.402, 4.020e-9
0.404, 4.028e-9
0.406, 4.038e-9
0.408, 4.045e-9
0.410, 4.044e-9
0.412, 4.059e-9
0.414, 4.068e-9
0.416, 4.078e-9
0.418, 4.087e-9
0.420, 4.097e-9
0.422, 4.106e-9
0.424, 4.114e-9
0.426, 4.127e-9
0.428, 4.138e-9
0.430, 4.148e-9
0.432, 4.158e-9
0.434, 4.167e-9
0.436, 4.175e-9
0.438, 4.184e-9
0.440, 4.195e-9
0.442, 4.205e-9
0.444, 4.215e-9
0.446, 4.221e-9
0.448, 4.229e-9
0.450, 4.241e-9
0.452, 4.251e-9
0.454, 4.261e-9
0.456, 4.269e-9
0.458, 4.278e-9
0.460, 4.286e-9
0.462, 4.295e-9
0.464, 4.303e-9
0.466, 4.311e-9
0.468, 4.320e-9
0.470, 4.330e-9
0.472, 4.339e-9
0.474, 4.349e-9
0.476, 4.360e-9
0.478, 4.369e-9
0.480, 4.383e-9
0.482, 4.390e-9
0.484, 4.401e-9
0.486, 4.411e-9
0.488, 4.419e-9
0.490, 4.428e-9
0.492, 4.440e-9
0.494, 4.450e-9
0.496, 4.461e-9
0.498, 4.472e-9
0.500, 4.408e-9
0.498, 3.948e-9
0.496, 3.730e-9
0.494, 3.560e-9
0.492, 3.423e-9
0.490, 3.307e-9
0.488, 3.202e-9
0.486, 3.101e-9
0.484, 3.018e-9
0.482, 2.942e-9
0.480, 2.867e-9
0.478, 2.800e-9
0.476, 2.737e-9
0.474, 2.674e-9
0.472, 2.612e-9
0.470, 2.560e-9
0.468, 2.507e-9
0.466, 2.457e-9
0.464, 2.408e-9
0.462, 2.363e-9
0.460, 2.319e-9
0.458, 2.274e-9
0.456, 2.232e-9
0.454, 2.193e-9
0.452, 2.150e-9
0.450, 2.113e-9
0.448, 2.079e-9
0.446, 2.044e-9
0.444, 2.008e-9
0.442, 1.975e-9
0.440, 1.940e-9
0.438, 1.906e-9
0.436, 1.870e-9
0.434, 1.840e-9
0.432, 1.806e-9
0.430, 1.776e-9
0.428, 1.746e-9
0.426, 1.718e-9
0.424, 1.686e-9
0.422, 1.656e-9
0.420, 1.627e-9
0.418, 1.601e-9
0.416, 1.573e-9
0.414, 1.546e-9
0.412, 1.519e-9
0.410, 1.497e-9
0.408, 1.473e-9
0.406, 1.445e-9
0.404, 1.417e-9
0.402, 1.387e-9
0.400, 1.363e-9
0.398, 1.337e-9
0.396, 1.312e-9
0.394, 1.287e-9
0.392, 1.263e-9
0.390, 1.241e-9
0.388, 1.216e-9
0.386, 1.191e-9
0.384, 1.169e-9
0.382, 1.146e-9
0.380, 1.123e-9
0.378, 1.102e-9
0.376, 1.081e-9
0.374, 1.062e-9
0.372, 1.039e-9
0.370, 1.016e-9
0.368, 9.964e-10
0.366, 9.767e-10
0.364, 9.542e-10
0.362, 9.325e-10
0.360, 9.113e-10
0.358, 8.918e-10
0.356, 8.707e-10
0.354, 8.501e-10
0.352, 8.301e-10
0.350, 8.093e-10
0.348, 7.899e-10
0.346, 7.711e-10
0.344, 7.528e-10
0.342, 7.338e-10
0.340, 7.142e-10
0.338, 6.961e-10
0.336, 6.768e-10
0.334, 6.581e-10
0.332, 6.416e-10
0.330, 6.222e-10
0.328, 6.063e-10
0.326, 5.858e-10
0.324, 5.683e-10
0.322, 5.507e-10
0.320, 5.350e-10
0.318, 5.183e-10
0.316, 4.998e-10
0.314, 4.783e-10
0.312, 4.615e-10
0.310, 4.438e-10
0.308, 4.232e-10
0.306, 4.032e-10
0.304, 3.914e-10
0.302, 3.744e-10
0.300, 3.600e-10
0.298, 3.450e-10
0.296, 3.298e-10
0.294, 3.148e-10
0.292, 2.992e-10
0.290, 2.866e-10
0.288, 2.701e-10
0.286, 2.544e-10
0.284, 2.396e-10
0.282, 2.234e-10
0.280, 2.084e-10
0.278, 1.910e-10
0.276, 1.763e-10
0.274, 1.632e-10
0.272, 1.495e-10
0.270, 1.368e-10
0.268, 1.238e-10
0.266, 1.102e-10
0.264, 9.499e-11
0.262, 7.978e-11
0.260, 6.603e-11
0.258, 5.336e-11
0.256, 4.020e-11
0.254, 2.675e-11
0.252, 1.222e-11
0.250, -2.106e-12
0.248, -1.809e-11
0.246, -3.106e-11
0.244, -4.646e-11
0.242, -6.225e-11
0.240, -7.629e-11
0.238, -9.091e-11
0.236, -1.047e-10
0.234, -1.165e-10
0.232, -1.295e-10
0.230, -1.403e-10
0.228, -1.549e-10
0.226, -1.694e-10
0.224, -1.853e-10
0.222, -1.967e-10
0.220, -2.094e-10
0.218, -2.240e-10
0.216, -2.380e-10
0.214, -2.505e-10
0.212, -2.671e-10
0.210, -2.815e-10
0.208, -2.976e-10
0.206, -3.121e-10
0.204, -3.206e-10
0.202, -3.340e-10
0.200, -3.470e-10
0.198, -3.597e-10
0.196, -3.731e-10
0.194, -3.865e-10
0.192, -4.002e-10
0.190, -4.137e-10
0.188, -4.291e-10
0.186, -4.437e-10
0.184, -4.572e-10
0.182, -4.704e-10
0.180, -4.847e-10
0.178, -4.989e-10
0.176, -5.166e-10
0.174, -5.321e-10
0.172, -5.481e-10
0.170, -5.629e-10
0.168, -5.775e-10
0.166, -5.914e-10
0.164, -6.048e-10
0.162, -6.182e-10
0.160, -6.335e-10
0.158, -6.468e-10
0.156, -6.621e-10
0.154, -6.767e-10
0.152, -6.922e-10
0.150, -7.064e-10
0.148, -7.230e-10
0.146, -7.385e-10
0.144, -7.534e-10
0.142, -7.714e-10
0.140, -7.881e-10
0.138, -8.030e-10
0.136, -8.172e-10
0.134, -8.310e-10
0.132, -8.463e-10
0.130, -8.627e-10
0.128, -8.766e-10
0.126, -8.949e-10
0.124, -9.121e-10
0.122, -9.272e-10
0.120, -9.451e-10
0.118, -9.607e-10
0.116, -9.761e-10
0.114, -9.937e-10
0.112, -1.012e-9
0.110, -1.030e-9
0.108, -1.049e-9
0.106, -1.067e-9
0.104, -1.082e-9
0.102, -1.103e-9
0.100, -1.116e-9
0.098, -1.134e-9
0.096, -1.152e-9
0.094, -1.168e-9
0.092, -1.185e-9
0.090, -1.202e-9
0.088, -1.220e-9
0.086, -1.239e-9
0.084, -1.260e-9
0.082, -1.279e-9
0.080, -1.295e-9
0.078, -1.311e-9
0.076, -1.326e-9
0.074, -1.343e-9
0.072, -1.360e-9
0.070, -1.378e-9
0.068, -1.397e-9
0.066, -1.414e-9
0.064, -1.430e-9
0.062, -1.449e-9
0.060, -1.467e-9
0.058, -1.485e-9
0.056, -1.504e-9
0.054, -1.523e-9
0.052, -1.541e-9
0.050, -1.559e-9
0.048, -1.574e-9
0.046, -1.592e-9
0.044, -1.611e-9
0.042, -1.625e-9
0.040, -1.640e-9
0.038, -1.656e-9
0.036, -1.677e-9
0.034, -1.692e-9
0.032, -1.710e-9
0.030, -1.725e-9
0.028, -1.743e-9
0.026, -1.763e-9
0.024, -1.780e-9
0.022, -1.795e-9
0.020, -1.810e-9
0.018, -1.828e-9
0.016, -1.845e-9
0.014, -1.862e-9
0.012, -1.878e-9
0.010, -1.895e-9
0.008, -1.913e-9
0.006, -1.928e-9
0.004, -1.944e-9
0.002, -1.962e-9
-0.000, -1.974e-9
-0.002, -1.991e-9
-0.004, -2.008e-9
-0.006, -2.025e-9
-0.008, -2.041e-9
-0.010, -2.056e-9
-0.012, -2.071e-9
-0.014, -2.086e-9
-0.016, -2.102e-9
-0.018, -2.120e-9
-0.020, -2.135e-9
-0.022, -2.151e-9
-0.024, -2.165e-9
-0.026, -2.179e-9
-0.028, -2.194e-9
-0.030, -2.209e-9
-0.032, -2.224e-9
-0.034, -2.241e-9
-0.036, -2.255e-9
-0.038, -2.269e-9
-0.040, -2.282e-9
-0.042, -2.296e-9
-0.044, -2.310e-9
-0.046, -2.324e-9
-0.048, -2.339e-9
-0.050, -2.355e-9
-0.052, -2.368e-9
-0.054, -2.381e-9
-0.056, -2.398e-9
-0.058, -2.409e-9
-0.060, -2.419e-9
-0.062, -2.432e-9
-0.064, -2.444e-9
-0.066, -2.457e-9
-0.068, -2.470e-9
-0.070, -2.483e-9
-0.072, -2.497e-9
-0.074, -2.507e-9
-0.076, -2.519e-9
-0.078, -2.532e-9
-0.080, -2.543e-9
-0.082, -2.555e-9
-0.084, -2.567e-9
-0.086, -2.578e-9
-0.088, -2.587e-9
-0.090, -2.598e-9
-0.092, -2.610e-9
-0.094, -2.620e-9
-0.096, -2.630e-9
-0.098, -2.640e-9
-0.100, -2.650e-9
-0.102, -2.664e-9
-0.104, -2.675e-9
-0.106, -2.684e-9
-0.108, -2.693e-9
-0.110, -2.705e-9
-0.112, -2.714e-9
-0.114, -2.722e-9
-0.116, -2.733e-9
-0.118, -2.742e-9
-0.120, -2.753e-9
-0.122, -2.763e-9
-0.124, -2.771e-9
-0.126, -2.778e-9
-0.128, -2.786e-9
-0.130, -2.794e-9
-0.132, -2.803e-9
-0.134, -2.812e-9
-0.136, -2.822e-9
-0.138, -2.832e-9
-0.140, -2.843e-9
-0.142, -2.849e-9
-0.144, -2.858e-9
-0.146, -2.867e-9
-0.148, -2.876e-9
-0.150, -2.883e-9
-0.152, -2.890e-9
-0.154, -2.896e-9
-0.156, -2.904e-9
-0.158, -2.911e-9
-0.160, -2.919e-9
-0.162, -2.925e-9
-0.164, -2.934e-9
-0.166, -2.941e-9
-0.168, -2.950e-9
-0.170, -2.957e-9
-0.172, -2.967e-9
-0.174, -2.975e-9
-0.176, -2.982e-9
-0.178, -2.991e-9
-0.180, -2.997e-9
-0.182, -3.003e-9
-0.184, -3.010e-9
-0.186, -3.017e-9
-0.188, -3.024e-9
-0.190, -3.031e-9
-0.192, -3.038e-9
-0.194, -3.044e-9
-0.196, -3.052e-9
-0.198, -3.058e-9
-0.200, -3.068e-9
-0.202, -3.075e-9
-0.204, -3.081e-9
-0.206, -3.085e-9
-0.208, -3.094e-9
-0.210, -3.103e-9
-0.212, -3.108e-9
-0.214, -3.117e-9
-0.216, -3.122e-9
-0.218, -3.130e-9
-0.220, -3.137e-9
-0.222, -3.143e-9
-0.224, -3.150e-9
-0.226, -3.157e-9
-0.228, -3.166e-9
-0.230, -3.171e-9
-0.232, -3.178e-9
-0.234, -3.184e-9
-0.236, -3.192e-9
-0.238, -3.202e-9
-0.240, -3.211e-9
-0.242, -3.217e-9
-0.244, -3.225e-9
-0.246, -3.233e-9
-0.248, -3.240e-9
-0.250, -3.248e-9
-0.252, -3.254e-9
-0.254, -3.261e-9
-0.256, -3.267e-9
-0.258, -3.273e-9
-0.260, -3.282e-9
-0.262, -3.291e-9
-0.264, -3.299e-9
-0.266, -3.306e-9
-0.268, -3.316e-9
-0.270, -3.324e-9
-0.272, -3.330e-9
-0.274, -3.340e-9
-0.276, -3.348e-9
-0.278, -3.356e-9
-0.280, -3.363e-9
-0.282, -3.369e-9
-0.284, -3.379e-9
-0.286, -3.389e-9
-0.288, -3.395e-9
-0.290, -3.405e-9
-0.292, -3.411e-9
-0.294, -3.418e-9
-0.296, -3.427e-9
-0.298, -3.437e-9
-0.300, -3.447e-9
-0.302, -3.455e-9
-0.304, -3.462e-9
-0.306, -3.471e-9
-0.308, -3.483e-9
-0.310, -3.488e-9
-0.312, -3.494e-9
-0.314, -3.501e-9
-0.316, -3.510e-9
-0.318, -3.517e-9
-0.320, -3.525e-9
-0.322, -3.533e-9
-0.324, -3.542e-9
-0.326, -3.549e-9
-0.328, -3.558e-9
-0.330, -3.566e-9
-0.332, -3.576e-9
-0.334, -3.586e-9
-0.336, -3.598e-9
-0.338, -3.606e-9
-0.340, -3.618e-9
-0.342, -3.626e-9
-0.344, -3.635e-9
-0.346, -3.646e-9
-0.348, -3.655e-9
-0.350, -3.665e-9
-0.352, -3.676e-9
-0.354, -3.687e-9
-0.356, -3.697e-9
-0.358, -3.708e-9
-0.360, -3.718e-9
-0.362, -3.726e-9
-0.364, -3.734e-9
-0.366, -3.745e-9
-0.368, -3.754e-9
-0.370, -3.763e-9
-0.372, -3.773e-9
-0.374, -3.783e-9
-0.376, -3.793e-9
-0.378, -3.803e-9
-0.380, -3.816e-9
-0.382, -3.826e-9
-0.384, -3.835e-9
-0.386, -3.846e-9
-0.388, -3.858e-9
-0.390, -3.868e-9
-0.392, -3.881e-9
-0.394, -3.892e-9
-0.396, -3.903e-9
-0.398, -3.915e-9
-0.400, -3.925e-9
-0.402, -3.937e-9
-0.404, -3.950e-9
-0.406, -3.961e-9
-0.408, -3.973e-9
-0.410, -3.985e-9
-0.412, -3.996e-9
-0.414, -4.008e-9
-0.416, -4.019e-9
-0.418, -4.030e-9
-0.420, -4.043e-9
-0.422, -4.055e-9
-0.424, -4.068e-9
-0.426, -4.080e-9
-0.428, -4.094e-9
-0.430, -4.108e-9
-0.432, -4.121e-9
-0.434, -4.136e-9
-0.436, -4.149e-9
-0.438, -4.163e-9
-0.440, -4.177e-9
-0.442, -4.191e-9
-0.444, -4.205e-9
-0.446, -4.217e-9
-0.448, -4.229e-9
-0.450, -4.242e-9
-0.452, -4.255e-9
-0.454, -4.270e-9
-0.456, -4.285e-9
-0.458, -4.299e-9
-0.460, -4.315e-9
-0.462, -4.328e-9
-0.464, -4.342e-9
-0.466, -4.355e-9
-0.468, -4.370e-9
-0.470, -4.383e-9
-0.472, -4.400e-9
-0.474, -4.415e-9
-0.476, -4.436e-9
-0.478, -4.450e-9
-0.480, -4.466e-9
-0.482, -4.480e-9
-0.484, -4.494e-9
-0.486, -4.512e-9
-0.488, -4.527e-9
-0.490, -4.542e-9
-0.492, -4.560e-9
-0.494, -4.577e-9
-0.496, -4.595e-9
-0.498, -4.613e-9
-0.499, -4.622e-9