File: Fig 4/Fig 3b CV surface light/CV_surface_light_3.csv
Sept. 26, 2024   14:49:12
Cyclic Voltammetry
File: c:\users\secm\desktop\data\lmxlm2\+12 2319-1\26-09-2024 - lamp inside cage\region 2\+12 2319-1 fto cv_cells_light_surface_20_3.csv
Data Source:  Experiment
Instrument Model:  CHI920C
Ref. Electrode:
Header:
Note:

Init E (V) = -0.5
High E (V) = 0.5
Low E (V) = -0.5
Init P/N = P
Scan Rate (V/s) = 0.05
Segment = 2
Sample Interval (V) = 0.001
Quiet Time (sec) = 10
Sensitivity (A/V) = 1e-7

Results:

Channel 1:
Segment 1:
Ep = 0.137V
ip = 1.701e-9A
Ah = 2.529e-9C

Segment 2:

Potential/V, Current/A

-0.500, -2.173e-9
-0.498, -2.013e-9
-0.496, -1.934e-9
-0.494, -1.877e-9
-0.492, -1.823e-9
-0.490, -1.782e-9
-0.488, -1.739e-9
-0.486, -1.700e-9
-0.484, -1.664e-9
-0.482, -1.633e-9
-0.480, -1.603e-9
-0.478, -1.573e-9
-0.476, -1.544e-9
-0.474, -1.516e-9
-0.472, -1.485e-9
-0.470, -1.456e-9
-0.468, -1.430e-9
-0.466, -1.406e-9
-0.464, -1.382e-9
-0.462, -1.359e-9
-0.460, -1.336e-9
-0.458, -1.314e-9
-0.456, -1.293e-9
-0.454, -1.272e-9
-0.452, -1.247e-9
-0.450, -1.224e-9
-0.448, -1.203e-9
-0.446, -1.184e-9
-0.444, -1.164e-9
-0.442, -1.146e-9
-0.440, -1.125e-9
-0.438, -1.107e-9
-0.436, -1.088e-9
-0.434, -1.071e-9
-0.432, -1.055e-9
-0.430, -1.036e-9
-0.428, -1.017e-9
-0.426, -9.967e-10
-0.424, -9.768e-10
-0.422, -9.602e-10
-0.420, -9.422e-10
-0.418, -9.255e-10
-0.416, -9.101e-10
-0.414, -8.912e-10
-0.412, -8.757e-10
-0.410, -8.597e-10
-0.408, -8.436e-10
-0.406, -8.293e-10
-0.404, -8.156e-10
-0.402, -8.006e-10
-0.400, -7.861e-10
-0.398, -7.703e-10
-0.396, -7.546e-10
-0.394, -7.368e-10
-0.392, -7.219e-10
-0.390, -7.049e-10
-0.388, -6.909e-10
-0.386, -6.778e-10
-0.384, -6.639e-10
-0.382, -6.476e-10
-0.380, -6.324e-10
-0.378, -6.171e-10
-0.376, -6.045e-10
-0.374, -5.923e-10
-0.372, -5.769e-10
-0.370, -5.641e-10
-0.368, -5.499e-10
-0.366, -5.347e-10
-0.364, -5.189e-10
-0.362, -5.029e-10
-0.360, -4.880e-10
-0.358, -4.736e-10
-0.356, -4.591e-10
-0.354, -4.459e-10
-0.352, -4.334e-10
-0.350, -4.197e-10
-0.348, -4.061e-10
-0.346, -3.926e-10
-0.344, -3.809e-10
-0.342, -3.684e-10
-0.340, -3.552e-10
-0.338, -3.425e-10
-0.336, -3.318e-10
-0.334, -3.207e-10
-0.332, -3.087e-10
-0.330, -2.928e-10
-0.328, -2.798e-10
-0.326, -2.652e-10
-0.324, -2.489e-10
-0.322, -2.395e-10
-0.320, -2.251e-10
-0.318, -2.117e-10
-0.316, -1.986e-10
-0.314, -1.862e-10
-0.312, -1.742e-10
-0.310, -1.617e-10
-0.308, -1.509e-10
-0.306, -1.333e-10
-0.304, -1.242e-10
-0.302, -1.124e-10
-0.300, -1.006e-10
-0.298, -9.003e-11
-0.296, -7.658e-11
-0.294, -6.625e-11
-0.292, -5.250e-11
-0.290, -3.983e-11
-0.288, -2.833e-11
-0.286, -1.458e-11
-0.284, -3.509e-13
-0.282, 1.310e-11
-0.280, 2.285e-11
-0.278, 3.357e-11
-0.276, 4.615e-11
-0.274, 5.765e-11
-0.272, 6.818e-11
-0.270, 8.085e-11
-0.268, 9.284e-11
-0.266, 1.047e-10
-0.264, 1.160e-10
-0.262, 1.269e-10
-0.260, 1.370e-10
-0.258, 1.474e-10
-0.256, 1.564e-10
-0.254, 1.667e-10
-0.252, 1.766e-10
-0.250, 1.874e-10
-0.248, 2.007e-10
-0.246, 2.130e-10
-0.244, 2.248e-10
-0.242, 2.376e-10
-0.240, 2.484e-10
-0.238, 2.601e-10
-0.236, 2.731e-10
-0.234, 2.832e-10
-0.232, 2.937e-10
-0.230, 3.037e-10
-0.228, 3.149e-10
-0.226, 3.248e-10
-0.224, 3.350e-10
-0.222, 3.474e-10
-0.220, 3.573e-10
-0.218, 3.693e-10
-0.216, 3.789e-10
-0.214, 3.884e-10
-0.212, 3.991e-10
-0.210, 4.096e-10
-0.208, 4.197e-10
-0.206, 4.313e-10
-0.204, 4.382e-10
-0.202, 4.536e-10
-0.200, 4.650e-10
-0.198, 4.786e-10
-0.196, 4.935e-10
-0.194, 5.055e-10
-0.192, 5.150e-10
-0.190, 5.269e-10
-0.188, 5.377e-10
-0.186, 5.470e-10
-0.184, 5.579e-10
-0.182, 5.694e-10
-0.180, 5.808e-10
-0.178, 5.909e-10
-0.176, 6.008e-10
-0.174, 6.113e-10
-0.172, 6.228e-10
-0.170, 6.316e-10
-0.168, 6.406e-10
-0.166, 6.510e-10
-0.164, 6.623e-10
-0.162, 6.720e-10
-0.160, 6.823e-10
-0.158, 6.956e-10
-0.156, 7.052e-10
-0.154, 7.161e-10
-0.152, 7.273e-10
-0.150, 7.375e-10
-0.148, 7.496e-10
-0.146, 7.604e-10
-0.144, 7.697e-10
-0.142, 7.799e-10
-0.140, 7.894e-10
-0.138, 8.006e-10
-0.136, 8.114e-10
-0.134, 8.244e-10
-0.132, 8.343e-10
-0.130, 8.446e-10
-0.128, 8.560e-10
-0.126, 8.678e-10
-0.124, 8.798e-10
-0.122, 8.917e-10
-0.120, 9.023e-10
-0.118, 9.123e-10
-0.116, 9.247e-10
-0.114, 9.380e-10
-0.112, 9.502e-10
-0.110, 9.602e-10
-0.108, 9.712e-10
-0.106, 9.840e-10
-0.104, 9.955e-10
-0.102, 1.013e-9
-0.100, 1.022e-9
-0.098, 1.031e-9
-0.096, 1.044e-9
-0.094, 1.055e-9
-0.092, 1.067e-9
-0.090, 1.080e-9
-0.088, 1.091e-9
-0.086, 1.103e-9
-0.084, 1.115e-9
-0.082, 1.128e-9
-0.080, 1.139e-9
-0.078, 1.152e-9
-0.076, 1.165e-9
-0.074, 1.179e-9
-0.072, 1.194e-9
-0.070, 1.208e-9
-0.068, 1.223e-9
-0.066, 1.236e-9
-0.064, 1.247e-9
-0.062, 1.262e-9
-0.060, 1.276e-9
-0.058, 1.291e-9
-0.056, 1.305e-9
-0.054, 1.320e-9
-0.052, 1.338e-9
-0.050, 1.351e-9
-0.048, 1.367e-9
-0.046, 1.383e-9
-0.044, 1.401e-9
-0.042, 1.417e-9
-0.040, 1.433e-9
-0.038, 1.449e-9
-0.036, 1.465e-9
-0.034, 1.482e-9
-0.032, 1.500e-9
-0.030, 1.516e-9
-0.028, 1.532e-9
-0.026, 1.547e-9
-0.024, 1.565e-9
-0.022, 1.584e-9
-0.020, 1.603e-9
-0.018, 1.621e-9
-0.016, 1.638e-9
-0.014, 1.658e-9
-0.012, 1.677e-9
-0.010, 1.699e-9
-0.008, 1.718e-9
-0.006, 1.739e-9
-0.004, 1.758e-9
-0.002, 1.779e-9
0.000, 1.795e-9
0.002, 1.817e-9
0.004, 1.842e-9
0.006, 1.866e-9
0.008, 1.888e-9
0.010, 1.910e-9
0.012, 1.934e-9
0.014, 1.958e-9
0.016, 1.981e-9
0.018, 2.005e-9
0.020, 2.030e-9
0.022, 2.053e-9
0.024, 2.077e-9
0.026, 2.100e-9
0.028, 2.125e-9
0.030, 2.151e-9
0.032, 2.180e-9
0.034, 2.209e-9
0.036, 2.236e-9
0.038, 2.264e-9
0.040, 2.291e-9
0.042, 2.321e-9
0.044, 2.353e-9
0.046, 2.384e-9
0.048, 2.415e-9
0.050, 2.446e-9
0.052, 2.477e-9
0.054, 2.512e-9
0.056, 2.547e-9
0.058, 2.583e-9
0.060, 2.612e-9
0.062, 2.652e-9
0.064, 2.691e-9
0.066, 2.730e-9
0.068, 2.772e-9
0.070, 2.812e-9
0.072, 2.852e-9
0.074, 2.893e-9
0.076, 2.937e-9
0.078, 2.978e-9
0.080, 3.022e-9
0.082, 3.068e-9
0.084, 3.111e-9
0.086, 3.164e-9
0.088, 3.214e-9
0.090, 3.259e-9
0.092, 3.309e-9
0.094, 3.356e-9
0.096, 3.406e-9
0.098, 3.457e-9
0.100, 3.505e-9
0.102, 3.555e-9
0.104, 3.604e-9
0.106, 3.655e-9
0.108, 3.702e-9
0.110, 3.748e-9
0.112, 3.791e-9
0.114, 3.830e-9
0.116, 3.872e-9
0.118, 3.910e-9
0.120, 3.941e-9
0.122, 3.977e-9
0.124, 4.008e-9
0.126, 4.035e-9
0.128, 4.058e-9
0.130, 4.075e-9
0.132, 4.092e-9
0.134, 4.106e-9
0.136, 4.113e-9
0.138, 4.115e-9
0.140, 4.109e-9
0.142, 4.095e-9
0.144, 4.080e-9
0.146, 4.063e-9
0.148, 4.045e-9
0.150, 4.026e-9
0.152, 4.006e-9
0.154, 3.988e-9
0.156, 3.974e-9
0.158, 3.958e-9
0.160, 3.946e-9
0.162, 3.936e-9
0.164, 3.927e-9
0.166, 3.922e-9
0.168, 3.917e-9
0.170, 3.913e-9
0.172, 3.913e-9
0.174, 3.913e-9
0.176, 3.912e-9
0.178, 3.914e-9
0.180, 3.918e-9
0.182, 3.921e-9
0.184, 3.925e-9
0.186, 3.932e-9
0.188, 3.939e-9
0.190, 3.944e-9
0.192, 3.951e-9
0.194, 3.958e-9
0.196, 3.966e-9
0.198, 3.977e-9
0.200, 3.986e-9
0.202, 3.994e-9
0.204, 4.007e-9
0.206, 4.012e-9
0.208, 4.025e-9
0.210, 4.033e-9
0.212, 4.044e-9
0.214, 4.055e-9
0.216, 4.066e-9
0.218, 4.073e-9
0.220, 4.086e-9
0.222, 4.098e-9
0.224, 4.111e-9
0.226, 4.126e-9
0.228, 4.139e-9
0.230, 4.151e-9
0.232, 4.164e-9
0.234, 4.175e-9
0.236, 4.189e-9
0.238, 4.202e-9
0.240, 4.215e-9
0.242, 4.226e-9
0.244, 4.237e-9
0.246, 4.251e-9
0.248, 4.261e-9
0.250, 4.275e-9
0.252, 4.287e-9
0.254, 4.298e-9
0.256, 4.310e-9
0.258, 4.323e-9
0.260, 4.337e-9
0.262, 4.348e-9
0.264, 4.362e-9
0.266, 4.372e-9
0.268, 4.389e-9
0.270, 4.402e-9
0.272, 4.413e-9
0.274, 4.425e-9
0.276, 4.437e-9
0.278, 4.453e-9
0.280, 4.464e-9
0.282, 4.478e-9
0.284, 4.491e-9
0.286, 4.503e-9
0.288, 4.518e-9
0.290, 4.531e-9
0.292, 4.544e-9
0.294, 4.555e-9
0.296, 4.568e-9
0.298, 4.578e-9
0.300, 4.593e-9
0.302, 4.607e-9
0.304, 4.620e-9
0.306, 4.635e-9
0.308, 4.659e-9
0.310, 4.662e-9
0.312, 4.672e-9
0.314, 4.685e-9
0.316, 4.696e-9
0.318, 4.709e-9
0.320, 4.723e-9
0.322, 4.735e-9
0.324, 4.746e-9
0.326, 4.759e-9
0.328, 4.770e-9
0.330, 4.780e-9
0.332, 4.793e-9
0.334, 4.803e-9
0.336, 4.814e-9
0.338, 4.827e-9
0.340, 4.841e-9
0.342, 4.852e-9
0.344, 4.863e-9
0.346, 4.873e-9
0.348, 4.885e-9
0.350, 4.895e-9
0.352, 4.906e-9
0.354, 4.916e-9
0.356, 4.927e-9
0.358, 4.935e-9
0.360, 4.946e-9
0.362, 4.953e-9
0.364, 4.966e-9
0.366, 4.976e-9
0.368, 4.986e-9
0.370, 4.997e-9
0.372, 5.004e-9
0.374, 5.014e-9
0.376, 5.024e-9
0.378, 5.032e-9
0.380, 5.042e-9
0.382, 5.049e-9
0.384, 5.059e-9
0.386, 5.067e-9
0.388, 5.076e-9
0.390, 5.087e-9
0.392, 5.097e-9
0.394, 5.105e-9
0.396, 5.113e-9
0.398, 5.121e-9
0.400, 5.130e-9
0.402, 5.137e-9
0.404, 5.146e-9
0.406, 5.152e-9
0.408, 5.160e-9
0.410, 5.151e-9
0.412, 5.168e-9
0.414, 5.176e-9
0.416, 5.184e-9
0.418, 5.194e-9
0.420, 5.202e-9
0.422, 5.210e-9
0.424, 5.218e-9
0.426, 5.223e-9
0.428, 5.232e-9
0.430, 5.240e-9
0.432, 5.246e-9
0.434, 5.254e-9
0.436, 5.259e-9
0.438, 5.270e-9
0.440, 5.277e-9
0.442, 5.284e-9
0.444, 5.290e-9
0.446, 5.296e-9
0.448, 5.304e-9
0.450, 5.315e-9
0.452, 5.323e-9
0.454, 5.333e-9
0.456, 5.342e-9
0.458, 5.346e-9
0.460, 5.356e-9
0.462, 5.361e-9
0.464, 5.370e-9
0.466, 5.380e-9
0.468, 5.389e-9
0.470, 5.396e-9
0.472, 5.402e-9
0.474, 5.410e-9
0.476, 5.421e-9
0.478, 5.428e-9
0.480, 5.439e-9
0.482, 5.448e-9
0.484, 5.457e-9
0.486, 5.465e-9
0.488, 5.473e-9
0.490, 5.483e-9
0.492, 5.494e-9
0.494, 5.505e-9
0.496, 5.514e-9
0.498, 5.522e-9
0.500, 5.441e-9
0.498, 4.860e-9
0.496, 4.592e-9
0.494, 4.389e-9
0.492, 4.230e-9
0.490, 4.088e-9
0.488, 3.971e-9
0.486, 3.866e-9
0.484, 3.766e-9
0.482, 3.679e-9
0.480, 3.590e-9
0.478, 3.518e-9
0.476, 3.447e-9
0.474, 3.378e-9
0.472, 3.316e-9
0.470, 3.259e-9
0.468, 3.200e-9
0.466, 3.142e-9
0.464, 3.087e-9
0.462, 3.040e-9
0.460, 2.991e-9
0.458, 2.944e-9
0.456, 2.901e-9
0.454, 2.857e-9
0.452, 2.815e-9
0.450, 2.775e-9
0.448, 2.734e-9
0.446, 2.693e-9
0.444, 2.649e-9
0.442, 2.609e-9
0.440, 2.576e-9
0.438, 2.542e-9
0.436, 2.506e-9
0.434, 2.471e-9
0.432, 2.438e-9
0.430, 2.404e-9
0.428, 2.368e-9
0.426, 2.336e-9
0.424, 2.304e-9
0.422, 2.271e-9
0.420, 2.238e-9
0.418, 2.209e-9
0.416, 2.176e-9
0.414, 2.143e-9
0.412, 2.113e-9
0.410, 2.089e-9
0.408, 2.064e-9
0.406, 2.033e-9
0.404, 2.001e-9
0.402, 1.975e-9
0.400, 1.945e-9
0.398, 1.916e-9
0.396, 1.888e-9
0.394, 1.860e-9
0.392, 1.832e-9
0.390, 1.804e-9
0.388, 1.774e-9
0.386, 1.748e-9
0.384, 1.724e-9
0.382, 1.697e-9
0.380, 1.669e-9
0.378, 1.641e-9
0.376, 1.615e-9
0.374, 1.593e-9
0.372, 1.565e-9
0.370, 1.543e-9
0.368, 1.518e-9
0.366, 1.492e-9
0.364, 1.469e-9
0.362, 1.446e-9
0.360, 1.421e-9
0.358, 1.396e-9
0.356, 1.369e-9
0.354, 1.346e-9
0.352, 1.323e-9
0.350, 1.300e-9
0.348, 1.278e-9
0.346, 1.254e-9
0.344, 1.232e-9
0.342, 1.209e-9
0.340, 1.187e-9
0.338, 1.161e-9
0.336, 1.141e-9
0.334, 1.120e-9
0.332, 1.102e-9
0.330, 1.080e-9
0.328, 1.059e-9
0.326, 1.039e-9
0.324, 1.019e-9
0.322, 9.976e-10
0.320, 9.806e-10
0.318, 9.595e-10
0.316, 9.400e-10
0.314, 9.157e-10
0.312, 8.967e-10
0.310, 8.778e-10
0.308, 8.573e-10
0.306, 8.333e-10
0.304, 8.159e-10
0.302, 7.977e-10
0.300, 7.800e-10
0.298, 7.619e-10
0.296, 7.432e-10
0.294, 7.264e-10
0.292, 7.077e-10
0.290, 6.869e-10
0.288, 6.705e-10
0.286, 6.520e-10
0.284, 6.361e-10
0.282, 6.203e-10
0.280, 6.037e-10
0.278, 5.874e-10
0.276, 5.686e-10
0.274, 5.518e-10
0.272, 5.352e-10
0.270, 5.193e-10
0.268, 5.017e-10
0.266, 4.804e-10
0.264, 4.625e-10
0.262, 4.450e-10
0.260, 4.274e-10
0.258, 4.118e-10
0.256, 3.975e-10
0.254, 3.821e-10
0.252, 3.669e-10
0.250, 3.517e-10
0.248, 3.349e-10
0.246, 3.204e-10
0.244, 3.038e-10
0.242, 2.880e-10
0.240, 2.743e-10
0.238, 2.602e-10
0.236, 2.412e-10
0.234, 2.256e-10
0.232, 2.099e-10
0.230, 1.941e-10
0.228, 1.785e-10
0.226, 1.654e-10
0.224, 1.525e-10
0.222, 1.383e-10
0.220, 1.242e-10
0.218, 1.089e-10
0.216, 9.713e-11
0.214, 8.192e-11
0.212, 6.720e-11
0.210, 5.307e-11
0.208, 3.913e-11
0.206, 2.236e-11
0.204, 1.193e-11
0.202, -5.907e-12
0.200, -2.238e-11
0.198, -3.837e-11
0.196, -5.436e-11
0.194, -6.927e-11
0.192, -8.292e-11
0.190, -9.715e-11
0.188, -1.122e-10
0.186, -1.271e-10
0.184, -1.429e-10
0.182, -1.569e-10
0.180, -1.719e-10
0.178, -1.866e-10
0.176, -2.008e-10
0.174, -2.141e-10
0.172, -2.313e-10
0.170, -2.480e-10
0.168, -2.636e-10
0.166, -2.791e-10
0.164, -2.969e-10
0.162, -3.123e-10
0.160, -3.258e-10
0.158, -3.410e-10
0.156, -3.542e-10
0.154, -3.715e-10
0.152, -3.853e-10
0.150, -4.005e-10
0.148, -4.166e-10
0.146, -4.350e-10
0.144, -4.491e-10
0.142, -4.632e-10
0.140, -4.790e-10
0.138, -4.959e-10
0.136, -5.152e-10
0.134, -5.327e-10
0.132, -5.498e-10
0.130, -5.662e-10
0.128, -5.813e-10
0.126, -5.966e-10
0.124, -6.139e-10
0.122, -6.289e-10
0.120, -6.454e-10
0.118, -6.617e-10
0.116, -6.801e-10
0.114, -6.966e-10
0.112, -7.126e-10
0.110, -7.302e-10
0.108, -7.470e-10
0.106, -7.652e-10
0.104, -7.829e-10
0.102, -8.041e-10
0.100, -8.163e-10
0.098, -8.321e-10
0.096, -8.504e-10
0.094, -8.669e-10
0.092, -8.826e-10
0.090, -9.017e-10
0.088, -9.184e-10
0.086, -9.346e-10
0.084, -9.523e-10
0.082, -9.692e-10
0.080, -9.880e-10
0.078, -1.006e-9
0.076, -1.024e-9
0.074, -1.044e-9
0.072, -1.061e-9
0.070, -1.078e-9
0.068, -1.096e-9
0.066, -1.113e-9
0.064, -1.131e-9
0.062, -1.148e-9
0.060, -1.165e-9
0.058, -1.182e-9
0.056, -1.199e-9
0.054, -1.219e-9
0.052, -1.238e-9
0.050, -1.256e-9
0.048, -1.274e-9
0.046, -1.292e-9
0.044, -1.309e-9
0.042, -1.323e-9
0.040, -1.339e-9
0.038, -1.355e-9
0.036, -1.374e-9
0.034, -1.392e-9
0.032, -1.408e-9
0.030, -1.425e-9
0.028, -1.442e-9
0.026, -1.458e-9
0.024, -1.477e-9
0.022, -1.496e-9
0.020, -1.515e-9
0.018, -1.532e-9
0.016, -1.547e-9
0.014, -1.561e-9
0.012, -1.578e-9
0.010, -1.593e-9
0.008, -1.609e-9
0.006, -1.626e-9
0.004, -1.642e-9
0.002, -1.656e-9
-0.000, -1.666e-9
-0.002, -1.684e-9
-0.004, -1.699e-9
-0.006, -1.715e-9
-0.008, -1.731e-9
-0.010, -1.748e-9
-0.012, -1.765e-9
-0.014, -1.778e-9
-0.016, -1.792e-9
-0.018, -1.807e-9
-0.020, -1.821e-9
-0.022, -1.836e-9
-0.024, -1.852e-9
-0.026, -1.867e-9
-0.028, -1.881e-9
-0.030, -1.896e-9
-0.032, -1.909e-9
-0.034, -1.924e-9
-0.036, -1.937e-9
-0.038, -1.949e-9
-0.040, -1.964e-9
-0.042, -1.977e-9
-0.044, -1.993e-9
-0.046, -2.005e-9
-0.048, -2.017e-9
-0.050, -2.030e-9
-0.052, -2.042e-9
-0.054, -2.056e-9
-0.056, -2.068e-9
-0.058, -2.083e-9
-0.060, -2.096e-9
-0.062, -2.107e-9
-0.064, -2.119e-9
-0.066, -2.130e-9
-0.068, -2.142e-9
-0.070, -2.153e-9
-0.072, -2.162e-9
-0.074, -2.173e-9
-0.076, -2.185e-9
-0.078, -2.196e-9
-0.080, -2.208e-9
-0.082, -2.219e-9
-0.084, -2.231e-9
-0.086, -2.242e-9
-0.088, -2.252e-9
-0.090, -2.263e-9
-0.092, -2.272e-9
-0.094, -2.282e-9
-0.096, -2.293e-9
-0.098, -2.301e-9
-0.100, -2.311e-9
-0.102, -2.325e-9
-0.104, -2.336e-9
-0.106, -2.345e-9
-0.108, -2.355e-9
-0.110, -2.364e-9
-0.112, -2.371e-9
-0.114, -2.381e-9
-0.116, -2.390e-9
-0.118, -2.399e-9
-0.120, -2.407e-9
-0.122, -2.415e-9
-0.124, -2.424e-9
-0.126, -2.432e-9
-0.128, -2.439e-9
-0.130, -2.447e-9
-0.132, -2.455e-9
-0.134, -2.465e-9
-0.136, -2.473e-9
-0.138, -2.482e-9
-0.140, -2.492e-9
-0.142, -2.498e-9
-0.144, -2.507e-9
-0.146, -2.513e-9
-0.148, -2.520e-9
-0.150, -2.527e-9
-0.152, -2.535e-9
-0.154, -2.541e-9
-0.156, -2.549e-9
-0.158, -2.554e-9
-0.160, -2.561e-9
-0.162, -2.568e-9
-0.164, -2.575e-9
-0.166, -2.582e-9
-0.168, -2.590e-9
-0.170, -2.597e-9
-0.172, -2.602e-9
-0.174, -2.612e-9
-0.176, -2.617e-9
-0.178, -2.627e-9
-0.180, -2.631e-9
-0.182, -2.637e-9
-0.184, -2.643e-9
-0.186, -2.649e-9
-0.188, -2.657e-9
-0.190, -2.663e-9
-0.192, -2.668e-9
-0.194, -2.674e-9
-0.196, -2.690e-9
-0.198, -2.689e-9
-0.200, -2.696e-9
-0.202, -2.704e-9
-0.204, -2.712e-9
-0.206, -2.715e-9
-0.208, -2.723e-9
-0.210, -2.730e-9
-0.212, -2.740e-9
-0.214, -2.746e-9
-0.216, -2.752e-9
-0.218, -2.758e-9
-0.220, -2.765e-9
-0.222, -2.770e-9
-0.224, -2.778e-9
-0.226, -2.784e-9
-0.228, -2.790e-9
-0.230, -2.797e-9
-0.232, -2.806e-9
-0.234, -2.812e-9
-0.236, -2.820e-9
-0.238, -2.825e-9
-0.240, -2.834e-9
-0.242, -2.842e-9
-0.244, -2.850e-9
-0.246, -2.857e-9
-0.248, -2.865e-9
-0.250, -2.874e-9
-0.252, -2.880e-9
-0.254, -2.886e-9
-0.256, -2.892e-9
-0.258, -2.899e-9
-0.260, -2.905e-9
-0.262, -2.915e-9
-0.264, -2.921e-9
-0.266, -2.933e-9
-0.268, -2.935e-9
-0.270, -2.944e-9
-0.272, -2.952e-9
-0.274, -2.961e-9
-0.276, -2.969e-9
-0.278, -2.976e-9
-0.280, -2.983e-9
-0.282, -2.990e-9
-0.284, -3.000e-9
-0.286, -3.006e-9
-0.288, -3.013e-9
-0.290, -3.022e-9
-0.292, -3.030e-9
-0.294, -3.038e-9
-0.296, -3.046e-9
-0.298, -3.053e-9
-0.300, -3.065e-9
-0.302, -3.075e-9
-0.304, -3.082e-9
-0.306, -3.089e-9
-0.308, -3.103e-9
-0.310, -3.107e-9
-0.312, -3.115e-9
-0.314, -3.123e-9
-0.316, -3.133e-9
-0.318, -3.139e-9
-0.320, -3.148e-9
-0.322, -3.155e-9
-0.324, -3.163e-9
-0.326, -3.173e-9
-0.328, -3.183e-9
-0.330, -3.192e-9
-0.332, -3.200e-9
-0.334, -3.208e-9
-0.336, -3.216e-9
-0.338, -3.226e-9
-0.340, -3.236e-9
-0.342, -3.245e-9
-0.344, -3.251e-9
-0.346, -3.261e-9
-0.348, -3.269e-9
-0.350, -3.278e-9
-0.352, -3.287e-9
-0.354, -3.296e-9
-0.356, -3.306e-9
-0.358, -3.316e-9
-0.360, -3.324e-9
-0.362, -3.336e-9
-0.364, -3.346e-9
-0.366, -3.355e-9
-0.368, -3.364e-9
-0.370, -3.374e-9
-0.372, -3.382e-9
-0.374, -3.390e-9
-0.376, -3.399e-9
-0.378, -3.409e-9
-0.380, -3.422e-9
-0.382, -3.432e-9
-0.384, -3.441e-9
-0.386, -3.450e-9
-0.388, -3.459e-9
-0.390, -3.468e-9
-0.392, -3.476e-9
-0.394, -3.485e-9
-0.396, -3.495e-9
-0.398, -3.502e-9
-0.400, -3.512e-9
-0.402, -3.521e-9
-0.404, -3.529e-9
-0.406, -3.540e-9
-0.408, -3.550e-9
-0.410, -3.561e-9
-0.412, -3.570e-9
-0.414, -3.581e-9
-0.416, -3.592e-9
-0.418, -3.602e-9
-0.420, -3.613e-9
-0.422, -3.624e-9
-0.424, -3.635e-9
-0.426, -3.645e-9
-0.428, -3.659e-9
-0.430, -3.670e-9
-0.432, -3.682e-9
-0.434, -3.693e-9
-0.436, -3.704e-9
-0.438, -3.715e-9
-0.440, -3.727e-9
-0.442, -3.737e-9
-0.444, -3.746e-9
-0.446, -3.754e-9
-0.448, -3.765e-9
-0.450, -3.775e-9
-0.452, -3.786e-9
-0.454, -3.798e-9
-0.456, -3.807e-9
-0.458, -3.820e-9
-0.460, -3.833e-9
-0.462, -3.844e-9
-0.464, -3.855e-9
-0.466, -3.867e-9
-0.468, -3.879e-9
-0.470, -3.892e-9
-0.472, -3.904e-9
-0.474, -3.914e-9
-0.476, -3.929e-9
-0.478, -3.942e-9
-0.480, -3.955e-9
-0.482, -3.966e-9
-0.484, -3.978e-9
-0.486, -3.991e-9
-0.488, -4.001e-9
-0.490, -4.012e-9
-0.492, -4.025e-9
-0.494, -4.039e-9
-0.496, -4.051e-9
-0.498, -4.065e-9
-0.499, -4.072e-9