File: Fig 4/Fig 3b CV surface light/CV_surface_light_5.csv
Sept. 26, 2024   14:51:21
Cyclic Voltammetry
File: c:\users\secm\desktop\data\lmxlm2\+12 2319-1\26-09-2024 - lamp inside cage\region 2\+12 2319-1 fto cv_cells_light_surface_20_5.csv
Data Source:  Experiment
Instrument Model:  CHI920C
Ref. Electrode:
Header:
Note:

Init E (V) = -0.5
High E (V) = 0.5
Low E (V) = -0.5
Init P/N = P
Scan Rate (V/s) = 0.05
Segment = 2
Sample Interval (V) = 0.001
Quiet Time (sec) = 10
Sensitivity (A/V) = 1e-7

Results:

Channel 1:
Segment 1:
Ep = 0.132V
ip = 3.261e-9A
Ah = 3.230e-9C

Segment 2:

Potential/V, Current/A

-0.500, -1.951e-9
-0.498, -1.786e-9
-0.496, -1.711e-9
-0.494, -1.656e-9
-0.492, -1.607e-9
-0.490, -1.566e-9
-0.488, -1.528e-9
-0.486, -1.488e-9
-0.484, -1.451e-9
-0.482, -1.419e-9
-0.480, -1.387e-9
-0.478, -1.357e-9
-0.476, -1.329e-9
-0.474, -1.304e-9
-0.472, -1.277e-9
-0.470, -1.250e-9
-0.468, -1.222e-9
-0.466, -1.196e-9
-0.464, -1.173e-9
-0.462, -1.151e-9
-0.460, -1.128e-9
-0.458, -1.105e-9
-0.456, -1.084e-9
-0.454, -1.064e-9
-0.452, -1.044e-9
-0.450, -1.021e-9
-0.448, -1.001e-9
-0.446, -9.778e-10
-0.444, -9.576e-10
-0.442, -9.381e-10
-0.440, -9.203e-10
-0.438, -9.034e-10
-0.436, -8.822e-10
-0.434, -8.655e-10
-0.432, -8.495e-10
-0.430, -8.309e-10
-0.428, -8.161e-10
-0.426, -8.005e-10
-0.424, -7.837e-10
-0.422, -7.649e-10
-0.420, -7.472e-10
-0.418, -7.292e-10
-0.416, -7.122e-10
-0.414, -6.967e-10
-0.412, -6.826e-10
-0.410, -6.656e-10
-0.408, -6.496e-10
-0.406, -6.352e-10
-0.404, -6.197e-10
-0.402, -6.047e-10
-0.400, -5.887e-10
-0.398, -5.740e-10
-0.396, -5.603e-10
-0.394, -5.448e-10
-0.392, -5.274e-10
-0.390, -5.100e-10
-0.388, -4.939e-10
-0.386, -4.790e-10
-0.384, -4.649e-10
-0.382, -4.508e-10
-0.380, -4.367e-10
-0.378, -4.223e-10
-0.376, -4.081e-10
-0.374, -3.938e-10
-0.372, -3.809e-10
-0.370, -3.659e-10
-0.368, -3.529e-10
-0.366, -3.410e-10
-0.364, -3.288e-10
-0.362, -3.160e-10
-0.360, -3.034e-10
-0.358, -2.885e-10
-0.356, -2.720e-10
-0.354, -2.566e-10
-0.352, -2.443e-10
-0.350, -2.319e-10
-0.348, -2.177e-10
-0.346, -2.036e-10
-0.344, -1.921e-10
-0.342, -1.786e-10
-0.340, -1.653e-10
-0.338, -1.508e-10
-0.336, -1.395e-10
-0.334, -1.262e-10
-0.332, -1.146e-10
-0.330, -1.031e-10
-0.328, -9.189e-11
-0.326, -7.873e-11
-0.324, -6.644e-11
-0.322, -5.358e-11
-0.320, -4.003e-11
-0.318, -2.784e-11
-0.316, -1.254e-11
-0.314, 1.891e-12
-0.312, 1.398e-11
-0.310, 2.490e-11
-0.308, 3.718e-11
-0.306, 5.443e-11
-0.304, 6.350e-11
-0.302, 7.364e-11
-0.300, 8.758e-11
-0.298, 9.957e-11
-0.296, 1.098e-10
-0.294, 1.202e-10
-0.292, 1.331e-10
-0.290, 1.442e-10
-0.288, 1.563e-10
-0.286, 1.645e-10
-0.284, 1.753e-10
-0.282, 1.850e-10
-0.280, 1.983e-10
-0.278, 2.104e-10
-0.276, 2.249e-10
-0.274, 2.359e-10
-0.272, 2.475e-10
-0.270, 2.583e-10
-0.268, 2.681e-10
-0.266, 2.807e-10
-0.264, 2.926e-10
-0.262, 3.037e-10
-0.260, 3.157e-10
-0.258, 3.255e-10
-0.256, 3.366e-10
-0.254, 3.471e-10
-0.252, 3.570e-10
-0.250, 3.690e-10
-0.248, 3.804e-10
-0.246, 3.906e-10
-0.244, 3.999e-10
-0.242, 4.098e-10
-0.240, 4.203e-10
-0.238, 4.311e-10
-0.236, 4.429e-10
-0.234, 4.559e-10
-0.232, 4.680e-10
-0.230, 4.803e-10
-0.228, 4.948e-10
-0.226, 5.048e-10
-0.224, 5.163e-10
-0.222, 5.263e-10
-0.220, 5.373e-10
-0.218, 5.496e-10
-0.216, 5.563e-10
-0.214, 5.675e-10
-0.212, 5.791e-10
-0.210, 5.896e-10
-0.208, 5.994e-10
-0.206, 6.101e-10
-0.204, 6.174e-10
-0.202, 6.301e-10
-0.200, 6.404e-10
-0.198, 6.496e-10
-0.196, 6.585e-10
-0.194, 6.672e-10
-0.192, 6.780e-10
-0.190, 6.906e-10
-0.188, 6.994e-10
-0.186, 7.101e-10
-0.184, 7.208e-10
-0.182, 7.305e-10
-0.180, 7.420e-10
-0.178, 7.509e-10
-0.176, 7.597e-10
-0.174, 7.701e-10
-0.172, 7.797e-10
-0.170, 7.891e-10
-0.168, 8.008e-10
-0.166, 8.089e-10
-0.164, 8.199e-10
-0.162, 8.315e-10
-0.160, 8.420e-10
-0.158, 8.521e-10
-0.156, 8.617e-10
-0.154, 8.715e-10
-0.152, 8.810e-10
-0.150, 8.901e-10
-0.148, 9.017e-10
-0.146, 9.112e-10
-0.144, 9.211e-10
-0.142, 9.333e-10
-0.140, 9.423e-10
-0.138, 9.552e-10
-0.136, 9.643e-10
-0.134, 9.748e-10
-0.132, 9.849e-10
-0.130, 9.953e-10
-0.128, 1.004e-9
-0.126, 1.014e-9
-0.124, 1.024e-9
-0.122, 1.034e-9
-0.120, 1.047e-9
-0.118, 1.056e-9
-0.116, 1.066e-9
-0.114, 1.077e-9
-0.112, 1.088e-9
-0.110, 1.098e-9
-0.108, 1.109e-9
-0.106, 1.120e-9
-0.104, 1.129e-9
-0.102, 1.146e-9
-0.100, 1.153e-9
-0.098, 1.163e-9
-0.096, 1.173e-9
-0.094, 1.186e-9
-0.092, 1.199e-9
-0.090, 1.213e-9
-0.088, 1.224e-9
-0.086, 1.234e-9
-0.084, 1.247e-9
-0.082, 1.259e-9
-0.080, 1.272e-9
-0.078, 1.283e-9
-0.076, 1.296e-9
-0.074, 1.310e-9
-0.072, 1.321e-9
-0.070, 1.335e-9
-0.068, 1.350e-9
-0.066, 1.360e-9
-0.064, 1.376e-9
-0.062, 1.390e-9
-0.060, 1.407e-9
-0.058, 1.421e-9
-0.056, 1.436e-9
-0.054, 1.450e-9
-0.052, 1.465e-9
-0.050, 1.479e-9
-0.048, 1.493e-9
-0.046, 1.507e-9
-0.044, 1.523e-9
-0.042, 1.538e-9
-0.040, 1.552e-9
-0.038, 1.568e-9
-0.036, 1.585e-9
-0.034, 1.602e-9
-0.032, 1.616e-9
-0.030, 1.632e-9
-0.028, 1.650e-9
-0.026, 1.670e-9
-0.024, 1.688e-9
-0.022, 1.705e-9
-0.020, 1.723e-9
-0.018, 1.742e-9
-0.016, 1.760e-9
-0.014, 1.778e-9
-0.012, 1.798e-9
-0.010, 1.819e-9
-0.008, 1.839e-9
-0.006, 1.860e-9
-0.004, 1.881e-9
-0.002, 1.902e-9
0.000, 1.920e-9
0.002, 1.945e-9
0.004, 1.966e-9
0.006, 1.988e-9
0.008, 2.011e-9
0.010, 2.034e-9
0.012, 2.057e-9
0.014, 2.080e-9
0.016, 2.102e-9
0.018, 2.125e-9
0.020, 2.149e-9
0.022, 2.178e-9
0.024, 2.204e-9
0.026, 2.230e-9
0.028, 2.255e-9
0.030, 2.284e-9
0.032, 2.313e-9
0.034, 2.342e-9
0.036, 2.371e-9
0.038, 2.399e-9
0.040, 2.430e-9
0.042, 2.460e-9
0.044, 2.491e-9
0.046, 2.525e-9
0.048, 2.558e-9
0.050, 2.590e-9
0.052, 2.620e-9
0.054, 2.659e-9
0.056, 2.698e-9
0.058, 2.738e-9
0.060, 2.779e-9
0.062, 2.816e-9
0.064, 2.854e-9
0.066, 2.896e-9
0.068, 2.937e-9
0.070, 2.982e-9
0.072, 3.028e-9
0.074, 3.072e-9
0.076, 3.117e-9
0.078, 3.170e-9
0.080, 3.223e-9
0.082, 3.275e-9
0.084, 3.327e-9
0.086, 3.382e-9
0.088, 3.437e-9
0.090, 3.493e-9
0.092, 3.551e-9
0.094, 3.607e-9
0.096, 3.674e-9
0.098, 3.736e-9
0.100, 3.798e-9
0.102, 3.869e-9
0.104, 3.948e-9
0.106, 4.036e-9
0.108, 4.141e-9
0.110, 4.259e-9
0.112, 4.376e-9
0.114, 4.511e-9
0.116, 4.632e-9
0.118, 4.759e-9
0.120, 4.908e-9
0.122, 5.061e-9
0.124, 5.222e-9
0.126, 5.374e-9
0.128, 5.501e-9
0.130, 5.591e-9
0.132, 5.625e-9
0.134, 5.609e-9
0.136, 5.541e-9
0.138, 5.428e-9
0.140, 5.261e-9
0.142, 5.059e-9
0.144, 4.862e-9
0.146, 4.693e-9
0.148, 4.556e-9
0.150, 4.445e-9
0.152, 4.357e-9
0.154, 4.290e-9
0.156, 4.239e-9
0.158, 4.193e-9
0.160, 4.159e-9
0.162, 4.127e-9
0.164, 4.102e-9
0.166, 4.084e-9
0.168, 4.070e-9
0.170, 4.061e-9
0.172, 4.055e-9
0.174, 4.055e-9
0.176, 4.048e-9
0.178, 4.048e-9
0.180, 4.048e-9
0.182, 4.050e-9
0.184, 4.052e-9
0.186, 4.056e-9
0.188, 4.061e-9
0.190, 4.066e-9
0.192, 4.071e-9
0.194, 4.077e-9
0.196, 4.085e-9
0.198, 4.096e-9
0.200, 4.105e-9
0.202, 4.114e-9
0.204, 4.126e-9
0.206, 4.130e-9
0.208, 4.141e-9
0.210, 4.155e-9
0.212, 4.169e-9
0.214, 4.179e-9
0.216, 4.191e-9
0.218, 4.200e-9
0.220, 4.211e-9
0.222, 4.223e-9
0.224, 4.235e-9
0.226, 4.246e-9
0.228, 4.257e-9
0.230, 4.272e-9
0.232, 4.282e-9
0.234, 4.291e-9
0.236, 4.304e-9
0.238, 4.316e-9
0.240, 4.325e-9
0.242, 4.338e-9
0.244, 4.350e-9
0.246, 4.362e-9
0.248, 4.375e-9
0.250, 4.388e-9
0.252, 4.403e-9
0.254, 4.415e-9
0.256, 4.427e-9
0.258, 4.440e-9
0.260, 4.453e-9
0.262, 4.464e-9
0.264, 4.478e-9
0.266, 4.490e-9
0.268, 4.504e-9
0.270, 4.517e-9
0.272, 4.530e-9
0.274, 4.542e-9
0.276, 4.556e-9
0.278, 4.569e-9
0.280, 4.580e-9
0.282, 4.593e-9
0.284, 4.608e-9
0.286, 4.620e-9
0.288, 4.635e-9
0.290, 4.647e-9
0.292, 4.659e-9
0.294, 4.672e-9
0.296, 4.683e-9
0.298, 4.695e-9
0.300, 4.707e-9
0.302, 4.721e-9
0.304, 4.733e-9
0.306, 4.745e-9
0.308, 4.767e-9
0.310, 4.774e-9
0.312, 4.785e-9
0.314, 4.797e-9
0.316, 4.810e-9
0.318, 4.821e-9
0.320, 4.833e-9
0.322, 4.846e-9
0.324, 4.859e-9
0.326, 4.871e-9
0.328, 4.881e-9
0.330, 4.890e-9
0.332, 4.904e-9
0.334, 4.914e-9
0.336, 4.925e-9
0.338, 4.935e-9
0.340, 4.946e-9
0.342, 4.958e-9
0.344, 4.969e-9
0.346, 4.979e-9
0.348, 4.992e-9
0.350, 5.002e-9
0.352, 5.014e-9
0.354, 5.024e-9
0.356, 5.032e-9
0.358, 5.042e-9
0.360, 5.052e-9
0.362, 5.063e-9
0.364, 5.074e-9
0.366, 5.086e-9
0.368, 5.093e-9
0.370, 5.103e-9
0.372, 5.113e-9
0.374, 5.125e-9
0.376, 5.133e-9
0.378, 5.143e-9
0.380, 5.153e-9
0.382, 5.159e-9
0.384, 5.169e-9
0.386, 5.176e-9
0.388, 5.185e-9
0.390, 5.193e-9
0.392, 5.200e-9
0.394, 5.208e-9
0.396, 5.217e-9
0.398, 5.224e-9
0.400, 5.234e-9
0.402, 5.241e-9
0.404, 5.251e-9
0.406, 5.258e-9
0.408, 5.267e-9
0.410, 5.253e-9
0.412, 5.274e-9
0.414, 5.284e-9
0.416, 5.290e-9
0.418, 5.296e-9
0.420, 5.306e-9
0.422, 5.316e-9
0.424, 5.323e-9
0.426, 5.330e-9
0.428, 5.340e-9
0.430, 5.349e-9
0.432, 5.356e-9
0.434, 5.363e-9
0.436, 5.370e-9
0.438, 5.377e-9
0.440, 5.385e-9
0.442, 5.395e-9
0.444, 5.402e-9
0.446, 5.409e-9
0.448, 5.415e-9
0.450, 5.424e-9
0.452, 5.430e-9
0.454, 5.441e-9
0.456, 5.451e-9
0.458, 5.458e-9
0.460, 5.466e-9
0.462, 5.473e-9
0.464, 5.483e-9
0.466, 5.493e-9
0.468, 5.503e-9
0.470, 5.510e-9
0.472, 5.517e-9
0.474, 5.524e-9
0.476, 5.534e-9
0.478, 5.545e-9
0.480, 5.553e-9
0.482, 5.567e-9
0.484, 5.577e-9
0.486, 5.589e-9
0.488, 5.598e-9
0.490, 5.608e-9
0.492, 5.620e-9
0.494, 5.631e-9
0.496, 5.639e-9
0.498, 5.649e-9
0.500, 5.563e-9
0.498, 4.959e-9
0.496, 4.686e-9
0.494, 4.481e-9
0.492, 4.316e-9
0.490, 4.178e-9
0.488, 4.054e-9
0.486, 3.948e-9
0.484, 3.849e-9
0.482, 3.763e-9
0.480, 3.679e-9
0.478, 3.596e-9
0.476, 3.530e-9
0.474, 3.463e-9
0.472, 3.399e-9
0.470, 3.337e-9
0.468, 3.281e-9
0.466, 3.226e-9
0.464, 3.171e-9
0.462, 3.115e-9
0.460, 3.071e-9
0.458, 3.025e-9
0.456, 2.980e-9
0.454, 2.938e-9
0.452, 2.894e-9
0.450, 2.850e-9
0.448, 2.813e-9
0.446, 2.774e-9
0.444, 2.735e-9
0.442, 2.695e-9
0.440, 2.656e-9
0.438, 2.619e-9
0.436, 2.583e-9
0.434, 2.550e-9
0.432, 2.516e-9
0.430, 2.481e-9
0.428, 2.445e-9
0.426, 2.414e-9
0.424, 2.383e-9
0.422, 2.352e-9
0.420, 2.317e-9
0.418, 2.285e-9
0.416, 2.252e-9
0.414, 2.222e-9
0.412, 2.193e-9
0.410, 2.166e-9
0.408, 2.136e-9
0.406, 2.105e-9
0.404, 2.076e-9
0.402, 2.048e-9
0.400, 2.019e-9
0.398, 1.991e-9
0.396, 1.963e-9
0.394, 1.934e-9
0.392, 1.907e-9
0.390, 1.878e-9
0.388, 1.849e-9
0.386, 1.819e-9
0.384, 1.793e-9
0.382, 1.765e-9
0.380, 1.740e-9
0.378, 1.714e-9
0.376, 1.686e-9
0.374, 1.660e-9
0.372, 1.634e-9
0.370, 1.610e-9
0.368, 1.583e-9
0.366, 1.559e-9
0.364, 1.531e-9
0.362, 1.508e-9
0.360, 1.485e-9
0.358, 1.463e-9
0.356, 1.435e-9
0.354, 1.411e-9
0.352, 1.385e-9
0.350, 1.362e-9
0.348, 1.336e-9
0.346, 1.313e-9
0.344, 1.290e-9
0.342, 1.268e-9
0.340, 1.245e-9
0.338, 1.220e-9
0.336, 1.198e-9
0.334, 1.175e-9
0.332, 1.153e-9
0.330, 1.132e-9
0.328, 1.113e-9
0.326, 1.092e-9
0.324, 1.070e-9
0.322, 1.048e-9
0.320, 1.028e-9
0.318, 1.008e-9
0.316, 9.862e-10
0.314, 9.658e-10
0.312, 9.458e-10
0.310, 9.248e-10
0.308, 9.031e-10
0.306, 8.785e-10
0.304, 8.608e-10
0.302, 8.405e-10
0.300, 8.203e-10
0.298, 8.012e-10
0.296, 7.822e-10
0.294, 7.670e-10
0.292, 7.469e-10
0.290, 7.289e-10
0.288, 7.093e-10
0.286, 6.897e-10
0.284, 6.713e-10
0.282, 6.530e-10
0.280, 6.362e-10
0.278, 6.208e-10
0.276, 6.027e-10
0.274, 5.840e-10
0.272, 5.672e-10
0.270, 5.482e-10
0.268, 5.299e-10
0.266, 5.118e-10
0.264, 4.957e-10
0.262, 4.766e-10
0.260, 4.538e-10
0.258, 4.355e-10
0.256, 4.204e-10
0.254, 4.037e-10
0.252, 3.889e-10
0.250, 3.738e-10
0.248, 3.576e-10
0.246, 3.428e-10
0.244, 3.259e-10
0.242, 3.108e-10
0.240, 2.949e-10
0.238, 2.803e-10
0.236, 2.650e-10
0.234, 2.483e-10
0.232, 2.323e-10
0.230, 2.170e-10
0.228, 1.996e-10
0.226, 1.850e-10
0.224, 1.703e-10
0.222, 1.563e-10
0.220, 1.435e-10
0.218, 1.290e-10
0.216, 1.138e-10
0.214, 1.007e-10
0.212, 8.504e-11
0.210, 7.101e-11
0.208, 5.609e-11
0.206, 4.127e-11
0.204, 2.938e-11
0.202, 1.125e-11
0.200, -5.128e-12
0.198, -1.994e-11
0.196, -3.632e-11
0.194, -5.211e-11
0.192, -6.742e-11
0.190, -8.311e-11
0.188, -9.666e-11
0.186, -1.115e-10
0.184, -1.257e-10
0.182, -1.408e-10
0.180, -1.528e-10
0.178, -1.664e-10
0.176, -1.820e-10
0.174, -1.975e-10
0.172, -2.128e-10
0.170, -2.271e-10
0.168, -2.429e-10
0.166, -2.573e-10
0.164, -2.753e-10
0.162, -2.923e-10
0.160, -3.084e-10
0.158, -3.250e-10
0.156, -3.381e-10
0.154, -3.506e-10
0.152, -3.650e-10
0.150, -3.804e-10
0.148, -3.957e-10
0.146, -4.121e-10
0.144, -4.268e-10
0.142, -4.432e-10
0.140, -4.596e-10
0.138, -4.753e-10
0.136, -4.920e-10
0.134, -5.096e-10
0.132, -5.292e-10
0.130, -5.454e-10
0.128, -5.624e-10
0.126, -5.784e-10
0.124, -5.939e-10
0.122, -6.102e-10
0.120, -6.255e-10
0.118, -6.430e-10
0.116, -6.600e-10
0.114, -6.764e-10
0.112, -6.925e-10
0.110, -7.106e-10
0.108, -7.286e-10
0.106, -7.468e-10
0.104, -7.642e-10
0.102, -7.889e-10
0.100, -8.017e-10
0.098, -8.172e-10
0.096, -8.334e-10
0.094, -8.505e-10
0.092, -8.675e-10
0.090, -8.851e-10
0.088, -9.027e-10
0.086, -9.200e-10
0.084, -9.377e-10
0.082, -9.558e-10
0.080, -9.757e-10
0.078, -9.950e-10
0.076, -1.016e-9
0.074, -1.035e-9
0.072, -1.054e-9
0.070, -1.072e-9
0.068, -1.089e-9
0.066, -1.107e-9
0.064, -1.126e-9
0.062, -1.144e-9
0.060, -1.163e-9
0.058, -1.179e-9
0.056, -1.198e-9
0.054, -1.218e-9
0.052, -1.242e-9
0.050, -1.262e-9
0.048, -1.281e-9
0.046, -1.297e-9
0.044, -1.315e-9
0.042, -1.333e-9
0.040, -1.350e-9
0.038, -1.369e-9
0.036, -1.390e-9
0.034, -1.408e-9
0.032, -1.427e-9
0.030, -1.446e-9
0.028, -1.465e-9
0.026, -1.485e-9
0.024, -1.504e-9
0.022, -1.524e-9
0.020, -1.543e-9
0.018, -1.561e-9
0.016, -1.580e-9
0.014, -1.598e-9
0.012, -1.615e-9
0.010, -1.632e-9
0.008, -1.648e-9
0.006, -1.667e-9
0.004, -1.684e-9
0.002, -1.699e-9
-0.000, -1.712e-9
-0.002, -1.733e-9
-0.004, -1.753e-9
-0.006, -1.771e-9
-0.008, -1.787e-9
-0.010, -1.803e-9
-0.012, -1.818e-9
-0.014, -1.837e-9
-0.016, -1.852e-9
-0.018, -1.870e-9
-0.020, -1.887e-9
-0.022, -1.901e-9
-0.024, -1.915e-9
-0.026, -1.928e-9
-0.028, -1.944e-9
-0.030, -1.959e-9
-0.032, -1.973e-9
-0.034, -1.988e-9
-0.036, -2.002e-9
-0.038, -2.016e-9
-0.040, -2.028e-9
-0.042, -2.041e-9
-0.044, -2.057e-9
-0.046, -2.069e-9
-0.048, -2.083e-9
-0.050, -2.094e-9
-0.052, -2.107e-9
-0.054, -2.119e-9
-0.056, -2.132e-9
-0.058, -2.141e-9
-0.060, -2.154e-9
-0.062, -2.166e-9
-0.064, -2.179e-9
-0.066, -2.183e-9
-0.068, -2.194e-9
-0.070, -2.204e-9
-0.072, -2.214e-9
-0.074, -2.223e-9
-0.076, -2.234e-9
-0.078, -2.244e-9
-0.080, -2.255e-9
-0.082, -2.264e-9
-0.084, -2.273e-9
-0.086, -2.282e-9
-0.088, -2.289e-9
-0.090, -2.303e-9
-0.092, -2.309e-9
-0.094, -2.319e-9
-0.096, -2.336e-9
-0.098, -2.345e-9
-0.100, -2.352e-9
-0.102, -2.355e-9
-0.104, -2.363e-9
-0.106, -2.374e-9
-0.108, -2.377e-9
-0.110, -2.388e-9
-0.112, -2.397e-9
-0.114, -2.402e-9
-0.116, -2.408e-9
-0.118, -2.415e-9
-0.120, -2.425e-9
-0.122, -2.429e-9
-0.124, -2.436e-9
-0.126, -2.441e-9
-0.128, -2.446e-9
-0.130, -2.460e-9
-0.132, -2.461e-9
-0.134, -2.473e-9
-0.136, -2.479e-9
-0.138, -2.482e-9
-0.140, -2.488e-9
-0.142, -2.496e-9
-0.144, -2.501e-9
-0.146, -2.508e-9
-0.148, -2.513e-9
-0.150, -2.520e-9
-0.152, -2.526e-9
-0.154, -2.529e-9
-0.156, -2.536e-9
-0.158, -2.541e-9
-0.160, -2.549e-9
-0.162, -2.561e-9
-0.164, -2.559e-9
-0.166, -2.565e-9
-0.168, -2.570e-9
-0.170, -2.579e-9
-0.172, -2.588e-9
-0.174, -2.586e-9
-0.176, -2.596e-9
-0.178, -2.601e-9
-0.180, -2.603e-9
-0.182, -2.623e-9
-0.184, -2.620e-9
-0.186, -2.620e-9
-0.188, -2.635e-9
-0.190, -2.639e-9
-0.192, -2.636e-9
-0.194, -2.642e-9
-0.196, -2.648e-9
-0.198, -2.660e-9
-0.200, -2.660e-9
-0.202, -2.665e-9
-0.204, -2.684e-9
-0.206, -2.673e-9
-0.208, -2.680e-9
-0.210, -2.693e-9
-0.212, -2.696e-9
-0.214, -2.700e-9
-0.216, -2.709e-9
-0.218, -2.712e-9
-0.220, -2.719e-9
-0.222, -2.725e-9
-0.224, -2.730e-9
-0.226, -2.742e-9
-0.228, -2.748e-9
-0.230, -2.751e-9
-0.232, -2.756e-9
-0.234, -2.763e-9
-0.236, -2.768e-9
-0.238, -2.773e-9
-0.240, -2.779e-9
-0.242, -2.785e-9
-0.244, -2.792e-9
-0.246, -2.797e-9
-0.248, -2.806e-9
-0.250, -2.812e-9
-0.252, -2.827e-9
-0.254, -2.838e-9
-0.256, -2.831e-9
-0.258, -2.839e-9
-0.260, -2.847e-9
-0.262, -2.855e-9
-0.264, -2.862e-9
-0.266, -2.868e-9
-0.268, -2.876e-9
-0.270, -2.886e-9
-0.272, -2.889e-9
-0.274, -2.896e-9
-0.276, -2.903e-9
-0.278, -2.910e-9
-0.280, -2.917e-9
-0.282, -2.922e-9
-0.284, -2.935e-9
-0.286, -2.938e-9
-0.288, -2.944e-9
-0.290, -2.952e-9
-0.292, -2.959e-9
-0.294, -2.968e-9
-0.296, -2.974e-9
-0.298, -2.985e-9
-0.300, -2.991e-9
-0.302, -2.999e-9
-0.304, -3.006e-9
-0.306, -3.015e-9
-0.308, -3.027e-9
-0.310, -3.032e-9
-0.312, -3.039e-9
-0.314, -3.046e-9
-0.316, -3.055e-9
-0.318, -3.062e-9
-0.320, -3.069e-9
-0.322, -3.078e-9
-0.324, -3.087e-9
-0.326, -3.096e-9
-0.328, -3.105e-9
-0.330, -3.109e-9
-0.332, -3.120e-9
-0.334, -3.124e-9
-0.336, -3.133e-9
-0.338, -3.142e-9
-0.340, -3.150e-9
-0.342, -3.157e-9
-0.344, -3.166e-9
-0.346, -3.174e-9
-0.348, -3.184e-9
-0.350, -3.192e-9
-0.352, -3.201e-9
-0.354, -3.209e-9
-0.356, -3.219e-9
-0.358, -3.228e-9
-0.360, -3.236e-9
-0.362, -3.243e-9
-0.364, -3.256e-9
-0.366, -3.261e-9
-0.368, -3.269e-9
-0.370, -3.277e-9
-0.372, -3.285e-9
-0.374, -3.294e-9
-0.376, -3.304e-9
-0.378, -3.312e-9
-0.380, -3.322e-9
-0.382, -3.333e-9
-0.384, -3.341e-9
-0.386, -3.350e-9
-0.388, -3.359e-9
-0.390, -3.368e-9
-0.392, -3.378e-9
-0.394, -3.386e-9
-0.396, -3.396e-9
-0.398, -3.406e-9
-0.400, -3.415e-9
-0.402, -3.425e-9
-0.404, -3.435e-9
-0.406, -3.440e-9
-0.408, -3.450e-9
-0.410, -3.462e-9
-0.412, -3.469e-9
-0.414, -3.478e-9
-0.416, -3.486e-9
-0.418, -3.494e-9
-0.420, -3.502e-9
-0.422, -3.511e-9
-0.424, -3.520e-9
-0.426, -3.527e-9
-0.428, -3.537e-9
-0.430, -3.548e-9
-0.432, -3.557e-9
-0.434, -3.565e-9
-0.436, -3.575e-9
-0.438, -3.587e-9
-0.440, -3.597e-9
-0.442, -3.608e-9
-0.444, -3.618e-9
-0.446, -3.629e-9
-0.448, -3.639e-9
-0.450, -3.650e-9
-0.452, -3.661e-9
-0.454, -3.672e-9
-0.456, -3.683e-9
-0.458, -3.694e-9
-0.460, -3.707e-9
-0.462, -3.715e-9
-0.464, -3.726e-9
-0.466, -3.735e-9
-0.468, -3.746e-9
-0.470, -3.754e-9
-0.472, -3.765e-9
-0.474, -3.774e-9
-0.476, -3.787e-9
-0.478, -3.798e-9
-0.480, -3.810e-9
-0.482, -3.823e-9
-0.484, -3.834e-9
-0.486, -3.845e-9
-0.488, -3.855e-9
-0.490, -3.868e-9
-0.492, -3.880e-9
-0.494, -3.891e-9
-0.496, -3.903e-9
-0.498, -3.916e-9
-0.499, -3.922e-9