File: Fig 4/Fig 3b CV surface light/CV_surface_light_11.csv
Sept. 26, 2024   14:58:25
Cyclic Voltammetry
File: c:\users\secm\desktop\data\lmxlm2\+12 2319-1\26-09-2024 - lamp inside cage\region 2\+12 2319-1 fto cv_cells_light_surface_20_11.csv
Data Source:  Experiment
Instrument Model:  CHI920C
Ref. Electrode:
Header:
Note:

Init E (V) = -0.5
High E (V) = 0.5
Low E (V) = -0.5
Init P/N = P
Scan Rate (V/s) = 0.05
Segment = 2
Sample Interval (V) = 0.001
Quiet Time (sec) = 10
Sensitivity (A/V) = 1e-7

Results:

Channel 1:
Segment 1:
Ep = 0.134V
ip = 2.157e-8A
Ah = 8.371e-9C

Segment 2:
Ep = -0.057V
ip = -1.347e-9A
Ah = -2.075e-9C

Potential/V, Current/A

-0.500, -1.781e-9
-0.498, -1.612e-9
-0.496, -1.542e-9
-0.494, -1.482e-9
-0.492, -1.432e-9
-0.490, -1.392e-9
-0.488, -1.354e-9
-0.486, -1.321e-9
-0.484, -1.289e-9
-0.482, -1.255e-9
-0.480, -1.223e-9
-0.478, -1.194e-9
-0.476, -1.167e-9
-0.474, -1.138e-9
-0.472, -1.115e-9
-0.470, -1.090e-9
-0.468, -1.067e-9
-0.466, -1.044e-9
-0.464, -1.021e-9
-0.462, -9.961e-10
-0.460, -9.721e-10
-0.458, -9.504e-10
-0.456, -9.297e-10
-0.454, -9.105e-10
-0.452, -8.905e-10
-0.450, -8.707e-10
-0.448, -8.526e-10
-0.446, -8.339e-10
-0.444, -8.172e-10
-0.442, -8.000e-10
-0.440, -7.821e-10
-0.438, -7.645e-10
-0.436, -7.462e-10
-0.434, -7.286e-10
-0.432, -7.105e-10
-0.430, -6.944e-10
-0.428, -6.778e-10
-0.426, -6.600e-10
-0.424, -6.449e-10
-0.422, -6.306e-10
-0.420, -6.121e-10
-0.418, -5.959e-10
-0.416, -5.812e-10
-0.414, -5.668e-10
-0.412, -5.511e-10
-0.410, -5.353e-10
-0.408, -5.184e-10
-0.406, -5.029e-10
-0.404, -4.827e-10
-0.402, -4.699e-10
-0.400, -4.549e-10
-0.398, -4.401e-10
-0.396, -4.260e-10
-0.394, -4.117e-10
-0.392, -3.986e-10
-0.390, -3.827e-10
-0.388, -3.678e-10
-0.386, -3.553e-10
-0.384, -3.432e-10
-0.382, -3.309e-10
-0.380, -3.173e-10
-0.378, -3.045e-10
-0.376, -2.907e-10
-0.374, -2.759e-10
-0.372, -2.607e-10
-0.370, -2.456e-10
-0.368, -2.310e-10
-0.366, -2.187e-10
-0.364, -2.046e-10
-0.362, -1.921e-10
-0.360, -1.802e-10
-0.358, -1.669e-10
-0.356, -1.532e-10
-0.354, -1.417e-10
-0.352, -1.283e-10
-0.350, -1.162e-10
-0.348, -1.047e-10
-0.346, -9.208e-11
-0.344, -8.185e-11
-0.342, -7.083e-11
-0.340, -5.670e-11
-0.338, -4.305e-11
-0.336, -2.921e-11
-0.334, -1.566e-11
-0.332, -3.763e-12
-0.330, 7.155e-12
-0.328, 2.080e-11
-0.326, 3.250e-11
-0.324, 4.410e-11
-0.322, 5.648e-11
-0.320, 6.808e-11
-0.318, 8.066e-11
-0.316, 9.391e-11
-0.314, 1.051e-10
-0.312, 1.166e-10
-0.310, 1.258e-10
-0.308, 1.357e-10
-0.306, 1.505e-10
-0.304, 1.584e-10
-0.302, 1.691e-10
-0.300, 1.813e-10
-0.298, 1.911e-10
-0.296, 2.034e-10
-0.294, 2.162e-10
-0.292, 2.294e-10
-0.290, 2.406e-10
-0.288, 2.535e-10
-0.286, 2.638e-10
-0.284, 2.738e-10
-0.282, 2.848e-10
-0.280, 2.958e-10
-0.278, 3.045e-10
-0.276, 3.158e-10
-0.274, 3.273e-10
-0.272, 3.376e-10
-0.270, 3.497e-10
-0.268, 3.597e-10
-0.266, 3.700e-10
-0.264, 3.806e-10
-0.262, 3.902e-10
-0.260, 4.009e-10
-0.258, 4.102e-10
-0.256, 4.189e-10
-0.254, 4.298e-10
-0.252, 4.423e-10
-0.250, 4.554e-10
-0.248, 4.680e-10
-0.246, 4.787e-10
-0.244, 4.912e-10
-0.242, 5.028e-10
-0.240, 5.136e-10
-0.238, 5.255e-10
-0.236, 5.356e-10
-0.234, 5.456e-10
-0.232, 5.547e-10
-0.230, 5.638e-10
-0.228, 5.745e-10
-0.226, 5.840e-10
-0.224, 5.925e-10
-0.222, 6.036e-10
-0.220, 6.155e-10
-0.218, 6.239e-10
-0.216, 6.331e-10
-0.214, 6.422e-10
-0.212, 6.523e-10
-0.210, 6.640e-10
-0.208, 6.722e-10
-0.206, 6.828e-10
-0.204, 6.879e-10
-0.202, 7.005e-10
-0.200, 7.104e-10
-0.198, 7.208e-10
-0.196, 7.305e-10
-0.194, 7.403e-10
-0.192, 7.489e-10
-0.190, 7.590e-10
-0.188, 7.683e-10
-0.186, 7.780e-10
-0.184, 7.865e-10
-0.182, 7.942e-10
-0.180, 8.064e-10
-0.178, 8.146e-10
-0.176, 8.227e-10
-0.174, 8.324e-10
-0.172, 8.419e-10
-0.170, 8.512e-10
-0.168, 8.621e-10
-0.166, 8.712e-10
-0.164, 8.811e-10
-0.162, 8.908e-10
-0.160, 9.008e-10
-0.158, 9.100e-10
-0.156, 9.207e-10
-0.154, 9.284e-10
-0.152, 9.380e-10
-0.150, 9.471e-10
-0.148, 9.588e-10
-0.146, 9.676e-10
-0.144, 9.761e-10
-0.142, 9.858e-10
-0.140, 9.941e-10
-0.138, 1.003e-9
-0.136, 1.013e-9
-0.134, 1.022e-9
-0.132, 1.032e-9
-0.130, 1.042e-9
-0.128, 1.051e-9
-0.126, 1.061e-9
-0.124, 1.071e-9
-0.122, 1.081e-9
-0.120, 1.091e-9
-0.118, 1.099e-9
-0.116, 1.109e-9
-0.114, 1.118e-9
-0.112, 1.127e-9
-0.110, 1.137e-9
-0.108, 1.147e-9
-0.106, 1.158e-9
-0.104, 1.168e-9
-0.102, 1.187e-9
-0.100, 1.193e-9
-0.098, 1.202e-9
-0.096, 1.214e-9
-0.094, 1.225e-9
-0.092, 1.236e-9
-0.090, 1.247e-9
-0.088, 1.258e-9
-0.086, 1.268e-9
-0.084, 1.280e-9
-0.082, 1.294e-9
-0.080, 1.306e-9
-0.078, 1.318e-9
-0.076, 1.329e-9
-0.074, 1.342e-9
-0.072, 1.356e-9
-0.070, 1.368e-9
-0.068, 1.381e-9
-0.066, 1.394e-9
-0.064, 1.408e-9
-0.062, 1.423e-9
-0.060, 1.438e-9
-0.058, 1.451e-9
-0.056, 1.465e-9
-0.054, 1.478e-9
-0.052, 1.492e-9
-0.050, 1.508e-9
-0.048, 1.522e-9
-0.046, 1.538e-9
-0.044, 1.552e-9
-0.042, 1.569e-9
-0.040, 1.585e-9
-0.038, 1.600e-9
-0.036, 1.618e-9
-0.034, 1.635e-9
-0.032, 1.651e-9
-0.030, 1.671e-9
-0.028, 1.688e-9
-0.026, 1.707e-9
-0.024, 1.725e-9
-0.022, 1.744e-9
-0.020, 1.764e-9
-0.018, 1.784e-9
-0.016, 1.804e-9
-0.014, 1.826e-9
-0.012, 1.847e-9
-0.010, 1.870e-9
-0.008, 1.891e-9
-0.006, 1.915e-9
-0.004, 1.939e-9
-0.002, 1.961e-9
0.000, 1.979e-9
0.002, 2.003e-9
0.004, 2.028e-9
0.006, 2.054e-9
0.008, 2.078e-9
0.010, 2.102e-9
0.012, 2.128e-9
0.014, 2.156e-9
0.016, 2.186e-9
0.018, 2.213e-9
0.020, 2.245e-9
0.022, 2.275e-9
0.024, 2.305e-9
0.026, 2.337e-9
0.028, 2.368e-9
0.030, 2.401e-9
0.032, 2.434e-9
0.034, 2.466e-9
0.036, 2.500e-9
0.038, 2.538e-9
0.040, 2.573e-9
0.042, 2.607e-9
0.044, 2.650e-9
0.046, 2.692e-9
0.048, 2.737e-9
0.050, 2.780e-9
0.052, 2.823e-9
0.054, 2.869e-9
0.056, 2.917e-9
0.058, 2.964e-9
0.060, 3.015e-9
0.062, 3.068e-9
0.064, 3.119e-9
0.066, 3.182e-9
0.068, 3.242e-9
0.070, 3.301e-9
0.072, 3.363e-9
0.074, 3.431e-9
0.076, 3.503e-9
0.078, 3.570e-9
0.080, 3.644e-9
0.082, 3.726e-9
0.084, 3.807e-9
0.086, 3.893e-9
0.088, 3.980e-9
0.090, 4.067e-9
0.092, 4.172e-9
0.094, 4.272e-9
0.096, 4.384e-9
0.098, 4.513e-9
0.100, 4.678e-9
0.102, 4.895e-9
0.104, 5.209e-9
0.106, 5.640e-9
0.108, 6.183e-9
0.110, 6.841e-9
0.112, 7.612e-9
0.114, 8.499e-9
0.116, 9.433e-9
0.118, 1.050e-8
0.120, 1.179e-8
0.122, 1.309e-8
0.124, 1.365e-8
0.126, 1.348e-8
0.128, 1.487e-8
0.130, 1.828e-8
0.132, 2.213e-8
0.134, 2.391e-8
0.136, 2.216e-8
0.138, 1.823e-8
0.140, 1.400e-8
0.142, 1.052e-8
0.144, 8.188e-9
0.146, 6.799e-9
0.148, 6.004e-9
0.150, 5.524e-9
0.152, 5.212e-9
0.154, 4.992e-9
0.156, 4.843e-9
0.158, 4.730e-9
0.160, 4.643e-9
0.162, 4.573e-9
0.164, 4.516e-9
0.166, 4.472e-9
0.168, 4.434e-9
0.170, 4.405e-9
0.172, 4.380e-9
0.174, 4.359e-9
0.176, 4.344e-9
0.178, 4.330e-9
0.180, 4.319e-9
0.182, 4.312e-9
0.184, 4.305e-9
0.186, 4.303e-9
0.188, 4.299e-9
0.190, 4.297e-9
0.192, 4.296e-9
0.194, 4.297e-9
0.196, 4.297e-9
0.198, 4.299e-9
0.200, 4.303e-9
0.202, 4.304e-9
0.204, 4.309e-9
0.206, 4.309e-9
0.208, 4.315e-9
0.210, 4.321e-9
0.212, 4.330e-9
0.214, 4.336e-9
0.216, 4.343e-9
0.218, 4.347e-9
0.220, 4.357e-9
0.222, 4.366e-9
0.224, 4.375e-9
0.226, 4.384e-9
0.228, 4.391e-9
0.230, 4.403e-9
0.232, 4.410e-9
0.234, 4.420e-9
0.236, 4.429e-9
0.238, 4.438e-9
0.240, 4.445e-9
0.242, 4.456e-9
0.244, 4.466e-9
0.246, 4.478e-9
0.248, 4.489e-9
0.250, 4.499e-9
0.252, 4.511e-9
0.254, 4.521e-9
0.256, 4.530e-9
0.258, 4.540e-9
0.260, 4.550e-9
0.262, 4.561e-9
0.264, 4.573e-9
0.266, 4.581e-9
0.268, 4.596e-9
0.270, 4.609e-9
0.272, 4.617e-9
0.274, 4.630e-9
0.276, 4.641e-9
0.278, 4.650e-9
0.280, 4.662e-9
0.282, 4.673e-9
0.284, 4.683e-9
0.286, 4.694e-9
0.288, 4.706e-9
0.290, 4.717e-9
0.292, 4.726e-9
0.294, 4.738e-9
0.296, 4.750e-9
0.298, 4.757e-9
0.300, 4.771e-9
0.302, 4.780e-9
0.304, 4.789e-9
0.306, 4.802e-9
0.308, 4.826e-9
0.310, 4.830e-9
0.312, 4.841e-9
0.314, 4.848e-9
0.316, 4.858e-9
0.318, 4.869e-9
0.320, 4.880e-9
0.322, 4.890e-9
0.324, 4.899e-9
0.326, 4.909e-9
0.328, 4.918e-9
0.330, 4.927e-9
0.332, 4.938e-9
0.334, 4.945e-9
0.336, 4.955e-9
0.338, 4.964e-9
0.340, 4.973e-9
0.342, 4.983e-9
0.344, 4.993e-9
0.346, 4.999e-9
0.348, 5.011e-9
0.350, 5.019e-9
0.352, 5.027e-9
0.354, 5.034e-9
0.356, 5.042e-9
0.358, 5.052e-9
0.360, 5.057e-9
0.362, 5.064e-9
0.364, 5.075e-9
0.366, 5.085e-9
0.368, 5.090e-9
0.370, 5.100e-9
0.372, 5.106e-9
0.374, 5.116e-9
0.376, 5.122e-9
0.378, 5.129e-9
0.380, 5.135e-9
0.382, 5.141e-9
0.384, 5.149e-9
0.386, 5.155e-9
0.388, 5.161e-9
0.390, 5.171e-9
0.392, 5.175e-9
0.394, 5.180e-9
0.396, 5.189e-9
0.398, 5.193e-9
0.400, 5.200e-9
0.402, 5.208e-9
0.404, 5.214e-9
0.406, 5.221e-9
0.408, 5.226e-9
0.410, 5.215e-9
0.412, 5.232e-9
0.414, 5.241e-9
0.416, 5.251e-9
0.418, 5.256e-9
0.420, 5.263e-9
0.422, 5.270e-9
0.424, 5.276e-9
0.426, 5.281e-9
0.428, 5.292e-9
0.430, 5.300e-9
0.432, 5.305e-9
0.434, 5.312e-9
0.436, 5.319e-9
0.438, 5.327e-9
0.440, 5.336e-9
0.442, 5.343e-9
0.444, 5.351e-9
0.446, 5.358e-9
0.448, 5.365e-9
0.450, 5.372e-9
0.452, 5.378e-9
0.454, 5.389e-9
0.456, 5.395e-9
0.458, 5.400e-9
0.460, 5.409e-9
0.462, 5.417e-9
0.464, 5.427e-9
0.466, 5.435e-9
0.468, 5.444e-9
0.470, 5.453e-9
0.472, 5.463e-9
0.474, 5.469e-9
0.476, 5.481e-9
0.478, 5.490e-9
0.480, 5.499e-9
0.482, 5.509e-9
0.484, 5.518e-9
0.486, 5.527e-9
0.488, 5.537e-9
0.490, 5.546e-9
0.492, 5.559e-9
0.494, 5.569e-9
0.496, 5.580e-9
0.498, 5.594e-9
0.500, 5.501e-9
0.498, 4.867e-9
0.496, 4.582e-9
0.494, 4.372e-9
0.492, 4.206e-9
0.490, 4.059e-9
0.488, 3.937e-9
0.486, 3.829e-9
0.484, 3.730e-9
0.482, 3.637e-9
0.480, 3.553e-9
0.478, 3.478e-9
0.476, 3.404e-9
0.474, 3.334e-9
0.472, 3.275e-9
0.470, 3.215e-9
0.468, 3.153e-9
0.466, 3.096e-9
0.464, 3.050e-9
0.462, 2.998e-9
0.460, 2.950e-9
0.458, 2.905e-9
0.456, 2.858e-9
0.454, 2.815e-9
0.452, 2.774e-9
0.450, 2.732e-9
0.448, 2.691e-9
0.446, 2.649e-9
0.444, 2.607e-9
0.442, 2.572e-9
0.440, 2.535e-9
0.438, 2.500e-9
0.436, 2.463e-9
0.434, 2.429e-9
0.432, 2.395e-9
0.430, 2.361e-9
0.428, 2.328e-9
0.426, 2.291e-9
0.424, 2.259e-9
0.422, 2.229e-9
0.420, 2.194e-9
0.418, 2.161e-9
0.416, 2.128e-9
0.414, 2.099e-9
0.412, 2.070e-9
0.410, 2.044e-9
0.408, 2.016e-9
0.406, 1.985e-9
0.404, 1.954e-9
0.402, 1.925e-9
0.400, 1.894e-9
0.398, 1.863e-9
0.396, 1.834e-9
0.394, 1.804e-9
0.392, 1.776e-9
0.390, 1.747e-9
0.388, 1.719e-9
0.386, 1.691e-9
0.384, 1.661e-9
0.382, 1.634e-9
0.380, 1.608e-9
0.378, 1.583e-9
0.376, 1.554e-9
0.374, 1.526e-9
0.372, 1.501e-9
0.370, 1.475e-9
0.368, 1.450e-9
0.366, 1.423e-9
0.364, 1.396e-9
0.362, 1.369e-9
0.360, 1.342e-9
0.358, 1.317e-9
0.356, 1.288e-9
0.354, 1.265e-9
0.352, 1.239e-9
0.350, 1.213e-9
0.348, 1.187e-9
0.346, 1.161e-9
0.344, 1.138e-9
0.342, 1.116e-9
0.340, 1.094e-9
0.338, 1.070e-9
0.336, 1.046e-9
0.334, 1.024e-9
0.332, 1.000e-9
0.330, 9.763e-10
0.328, 9.530e-10
0.326, 9.285e-10
0.324, 9.045e-10
0.322, 8.802e-10
0.320, 8.579e-10
0.318, 8.354e-10
0.316, 8.125e-10
0.314, 7.903e-10
0.312, 7.687e-10
0.310, 7.463e-10
0.308, 7.232e-10
0.306, 6.966e-10
0.304, 6.772e-10
0.302, 6.566e-10
0.300, 6.350e-10
0.298, 6.166e-10
0.296, 5.963e-10
0.294, 5.762e-10
0.292, 5.542e-10
0.290, 5.360e-10
0.288, 5.132e-10
0.286, 4.908e-10
0.284, 4.694e-10
0.282, 4.456e-10
0.280, 4.247e-10
0.278, 4.061e-10
0.276, 3.875e-10
0.274, 3.689e-10
0.272, 3.510e-10
0.270, 3.325e-10
0.268, 3.157e-10
0.266, 2.966e-10
0.264, 2.801e-10
0.262, 2.628e-10
0.260, 2.429e-10
0.258, 2.245e-10
0.256, 2.040e-10
0.254, 1.857e-10
0.252, 1.695e-10
0.250, 1.542e-10
0.248, 1.398e-10
0.246, 1.265e-10
0.244, 1.097e-10
0.242, 9.391e-11
0.240, 7.793e-11
0.238, 6.165e-11
0.236, 4.313e-11
0.234, 2.802e-11
0.232, 1.417e-11
0.230, -6.434e-13
0.228, -1.770e-11
0.226, -3.427e-11
0.224, -5.085e-11
0.222, -6.800e-11
0.220, -8.136e-11
0.218, -9.510e-11
0.216, -1.112e-10
0.214, -1.219e-10
0.212, -1.384e-10
0.210, -1.531e-10
0.208, -1.674e-10
0.206, -1.820e-10
0.204, -1.912e-10
0.202, -2.066e-10
0.200, -2.202e-10
0.198, -2.372e-10
0.196, -2.518e-10
0.194, -2.674e-10
0.192, -2.806e-10
0.190, -2.962e-10
0.188, -3.104e-10
0.186, -3.258e-10
0.184, -3.392e-10
0.182, -3.503e-10
0.180, -3.658e-10
0.178, -3.764e-10
0.176, -3.923e-10
0.174, -4.056e-10
0.172, -4.214e-10
0.170, -4.350e-10
0.168, -4.479e-10
0.166, -4.621e-10
0.164, -4.776e-10
0.162, -4.920e-10
0.160, -5.111e-10
0.158, -5.290e-10
0.156, -5.426e-10
0.154, -5.591e-10
0.152, -5.733e-10
0.150, -5.875e-10
0.148, -6.026e-10
0.146, -6.183e-10
0.144, -6.319e-10
0.142, -6.503e-10
0.140, -6.665e-10
0.138, -6.821e-10
0.136, -6.971e-10
0.134, -7.143e-10
0.132, -7.326e-10
0.130, -7.493e-10
0.128, -7.654e-10
0.126, -7.827e-10
0.124, -8.012e-10
0.122, -8.171e-10
0.120, -8.325e-10
0.118, -8.474e-10
0.116, -8.656e-10
0.114, -8.830e-10
0.112, -9.008e-10
0.110, -9.203e-10
0.108, -9.416e-10
0.106, -9.589e-10
0.104, -9.794e-10
0.102, -1.009e-9
0.100, -1.026e-9
0.098, -1.045e-9
0.096, -1.067e-9
0.094, -1.086e-9
0.092, -1.103e-9
0.090, -1.124e-9
0.088, -1.147e-9
0.086, -1.167e-9
0.084, -1.189e-9
0.082, -1.213e-9
0.080, -1.235e-9
0.078, -1.262e-9
0.076, -1.287e-9
0.074, -1.308e-9
0.072, -1.332e-9
0.070, -1.356e-9
0.068, -1.380e-9
0.066, -1.405e-9
0.064, -1.430e-9
0.062, -1.457e-9
0.060, -1.486e-9
0.058, -1.516e-9
0.056, -1.541e-9
0.054, -1.570e-9
0.052, -1.598e-9
0.050, -1.624e-9
0.048, -1.652e-9
0.046, -1.682e-9
0.044, -1.712e-9
0.042, -1.746e-9
0.040, -1.777e-9
0.038, -1.806e-9
0.036, -1.837e-9
0.034, -1.873e-9
0.032, -1.907e-9
0.030, -1.939e-9
0.028, -1.973e-9
0.026, -2.009e-9
0.024, -2.043e-9
0.022, -2.076e-9
0.020, -2.113e-9
0.018, -2.147e-9
0.016, -2.180e-9
0.014, -2.217e-9
0.012, -2.254e-9
0.010, -2.287e-9
0.008, -2.320e-9
0.006, -2.357e-9
0.004, -2.390e-9
0.002, -2.421e-9
-0.000, -2.447e-9
-0.002, -2.484e-9
-0.004, -2.519e-9
-0.006, -2.549e-9
-0.008, -2.579e-9
-0.010, -2.608e-9
-0.012, -2.638e-9
-0.014, -2.666e-9
-0.016, -2.695e-9
-0.018, -2.726e-9
-0.020, -2.754e-9
-0.022, -2.779e-9
-0.024, -2.808e-9
-0.026, -2.841e-9
-0.028, -2.874e-9
-0.030, -2.908e-9
-0.032, -2.945e-9
-0.034, -2.987e-9
-0.036, -3.029e-9
-0.038, -3.075e-9
-0.040, -3.118e-9
-0.042, -3.159e-9
-0.044, -3.209e-9
-0.046, -3.253e-9
-0.048, -3.278e-9
-0.050, -3.302e-9
-0.052, -3.328e-9
-0.054, -3.345e-9
-0.056, -3.358e-9
-0.058, -3.373e-9
-0.060, -3.283e-9
-0.062, -3.223e-9
-0.064, -3.206e-9
-0.066, -3.181e-9
-0.068, -3.159e-9
-0.070, -3.158e-9
-0.072, -3.147e-9
-0.074, -3.145e-9
-0.076, -3.141e-9
-0.078, -3.158e-9
-0.080, -3.143e-9
-0.082, -3.143e-9
-0.084, -3.151e-9
-0.086, -3.146e-9
-0.088, -3.246e-9
-0.090, -3.185e-9
-0.092, -3.173e-9
-0.094, -3.196e-9
-0.096, -3.196e-9
-0.098, -3.167e-9
-0.100, -3.201e-9
-0.102, -3.200e-9
-0.104, -3.180e-9
-0.106, -3.198e-9
-0.108, -3.194e-9
-0.110, -3.206e-9
-0.112, -3.207e-9
-0.114, -3.183e-9
-0.116, -3.212e-9
-0.118, -3.180e-9
-0.120, -3.249e-9
-0.122, -3.229e-9
-0.124, -3.192e-9
-0.126, -3.196e-9
-0.128, -3.185e-9
-0.130, -3.222e-9
-0.132, -3.197e-9
-0.134, -3.196e-9
-0.136, -3.207e-9
-0.138, -3.194e-9
-0.140, -3.191e-9
-0.142, -3.237e-9
-0.144, -3.188e-9
-0.146, -3.249e-9
-0.148, -3.192e-9
-0.150, -3.209e-9
-0.152, -3.245e-9
-0.154, -3.213e-9
-0.156, -3.215e-9
-0.158, -3.180e-9
-0.160, -3.231e-9
-0.162, -3.205e-9
-0.164, -3.224e-9
-0.166, -3.235e-9
-0.168, -3.212e-9
-0.170, -3.201e-9
-0.172, -3.177e-9
-0.174, -3.177e-9
-0.176, -3.199e-9
-0.178, -3.262e-9
-0.180, -3.188e-9
-0.182, -3.219e-9
-0.184, -3.210e-9
-0.186, -3.224e-9
-0.188, -3.178e-9
-0.190, -3.182e-9
-0.192, -3.187e-9
-0.194, -3.208e-9
-0.196, -3.211e-9
-0.198, -3.198e-9
-0.200, -3.211e-9
-0.202, -3.198e-9
-0.204, -3.242e-9
-0.206, -3.185e-9
-0.208, -3.231e-9
-0.210, -3.210e-9
-0.212, -3.188e-9
-0.214, -3.199e-9
-0.216, -3.223e-9
-0.218, -3.216e-9
-0.220, -3.196e-9
-0.222, -3.207e-9
-0.224, -3.194e-9
-0.226, -3.226e-9
-0.228, -3.196e-9
-0.230, -3.218e-9
-0.232, -3.195e-9
-0.234, -3.223e-9
-0.236, -3.219e-9
-0.238, -3.232e-9
-0.240, -3.223e-9
-0.242, -3.216e-9
-0.244, -3.206e-9
-0.246, -3.209e-9
-0.248, -3.207e-9
-0.250, -3.249e-9
-0.252, -3.226e-9
-0.254, -3.219e-9
-0.256, -3.224e-9
-0.258, -3.238e-9
-0.260, -3.226e-9
-0.262, -3.233e-9
-0.264, -3.256e-9
-0.266, -3.258e-9
-0.268, -3.271e-9
-0.270, -3.243e-9
-0.272, -3.247e-9
-0.274, -3.264e-9
-0.276, -3.276e-9
-0.278, -3.276e-9
-0.280, -3.262e-9
-0.282, -3.262e-9
-0.284, -3.262e-9
-0.286, -3.275e-9
-0.288, -3.273e-9
-0.290, -3.272e-9
-0.292, -3.289e-9
-0.294, -3.272e-9
-0.296, -3.278e-9
-0.298, -3.278e-9
-0.300, -3.290e-9
-0.302, -3.294e-9
-0.304, -3.312e-9
-0.306, -3.310e-9
-0.308, -3.328e-9
-0.310, -3.306e-9
-0.312, -3.312e-9
-0.314, -3.321e-9
-0.316, -3.341e-9
-0.318, -3.321e-9
-0.320, -3.332e-9
-0.322, -3.352e-9
-0.324, -3.346e-9
-0.326, -3.342e-9
-0.328, -3.348e-9
-0.330, -3.350e-9
-0.332, -3.360e-9
-0.334, -3.363e-9
-0.336, -3.366e-9
-0.338, -3.367e-9
-0.340, -3.388e-9
-0.342, -3.386e-9
-0.344, -3.384e-9
-0.346, -3.393e-9
-0.348, -3.392e-9
-0.350, -3.399e-9
-0.352, -3.399e-9
-0.354, -3.416e-9
-0.356, -3.413e-9
-0.358, -3.419e-9
-0.360, -3.445e-9
-0.362, -3.430e-9
-0.364, -3.438e-9
-0.366, -3.441e-9
-0.368, -3.444e-9
-0.370, -3.490e-9
-0.372, -3.465e-9
-0.374, -3.467e-9
-0.376, -3.466e-9
-0.378, -3.491e-9
-0.380, -3.476e-9
-0.382, -3.490e-9
-0.384, -3.484e-9
-0.386, -3.490e-9
-0.388, -3.505e-9
-0.390, -3.506e-9
-0.392, -3.505e-9
-0.394, -3.515e-9
-0.396, -3.516e-9
-0.398, -3.523e-9
-0.400, -3.530e-9
-0.402, -3.533e-9
-0.404, -3.539e-9
-0.406, -3.547e-9
-0.408, -3.554e-9
-0.410, -3.554e-9
-0.412, -3.584e-9
-0.414, -3.572e-9
-0.416, -3.580e-9
-0.418, -3.585e-9
-0.420, -3.590e-9
-0.422, -3.596e-9
-0.424, -3.602e-9
-0.426, -3.613e-9
-0.428, -3.617e-9
-0.430, -3.623e-9
-0.432, -3.631e-9
-0.434, -3.637e-9
-0.436, -3.646e-9
-0.438, -3.659e-9
-0.440, -3.658e-9
-0.442, -3.677e-9
-0.444, -3.679e-9
-0.446, -3.685e-9
-0.448, -3.699e-9
-0.450, -3.701e-9
-0.452, -3.708e-9
-0.454, -3.716e-9
-0.456, -3.722e-9
-0.458, -3.729e-9
-0.460, -3.736e-9
-0.462, -3.744e-9
-0.464, -3.756e-9
-0.466, -3.761e-9
-0.468, -3.769e-9
-0.470, -3.772e-9
-0.472, -3.779e-9
-0.474, -3.801e-9
-0.476, -3.799e-9
-0.478, -3.805e-9
-0.480, -3.820e-9
-0.482, -3.825e-9
-0.484, -3.831e-9
-0.486, -3.841e-9
-0.488, -3.849e-9
-0.490, -3.857e-9
-0.492, -3.868e-9
-0.494, -3.875e-9
-0.496, -3.884e-9
-0.498, -3.894e-9
-0.499, -3.898e-9