File: Fig 4/Fig 3b CV surface light/CV_surface_light_8.csv
Sept. 26, 2024   14:54:48
Cyclic Voltammetry
File: c:\users\secm\desktop\data\lmxlm2\+12 2319-1\26-09-2024 - lamp inside cage\region 2\+12 2319-1 fto cv_cells_light_surface_20_8.csv
Data Source:  Experiment
Instrument Model:  CHI920C
Ref. Electrode:
Header:
Note:

Init E (V) = -0.5
High E (V) = 0.5
Low E (V) = -0.5
Init P/N = P
Scan Rate (V/s) = 0.05
Segment = 2
Sample Interval (V) = 0.001
Quiet Time (sec) = 10
Sensitivity (A/V) = 1e-7

Results:

Channel 1:
Segment 1:
Ep = 0.134V
ip = 1.012e-8A
Ah = 5.449e-9C

Segment 2:

Potential/V, Current/A

-0.500, -1.836e-9
-0.498, -1.667e-9
-0.496, -1.597e-9
-0.494, -1.544e-9
-0.492, -1.491e-9
-0.490, -1.446e-9
-0.488, -1.409e-9
-0.486, -1.374e-9
-0.484, -1.339e-9
-0.482, -1.308e-9
-0.480, -1.279e-9
-0.478, -1.250e-9
-0.476, -1.218e-9
-0.474, -1.191e-9
-0.472, -1.165e-9
-0.470, -1.141e-9
-0.468, -1.114e-9
-0.466, -1.092e-9
-0.464, -1.069e-9
-0.462, -1.048e-9
-0.460, -1.027e-9
-0.458, -1.002e-9
-0.456, -9.790e-10
-0.454, -9.570e-10
-0.452, -9.353e-10
-0.450, -9.180e-10
-0.448, -8.971e-10
-0.446, -8.783e-10
-0.444, -8.599e-10
-0.442, -8.420e-10
-0.440, -8.245e-10
-0.438, -8.082e-10
-0.436, -7.920e-10
-0.434, -7.726e-10
-0.432, -7.535e-10
-0.430, -7.357e-10
-0.428, -7.172e-10
-0.426, -7.011e-10
-0.424, -6.834e-10
-0.422, -6.692e-10
-0.420, -6.530e-10
-0.418, -6.357e-10
-0.416, -6.202e-10
-0.414, -6.046e-10
-0.412, -5.897e-10
-0.410, -5.738e-10
-0.408, -5.596e-10
-0.406, -5.434e-10
-0.404, -5.258e-10
-0.402, -5.086e-10
-0.400, -4.902e-10
-0.398, -4.765e-10
-0.396, -4.623e-10
-0.394, -4.462e-10
-0.392, -4.326e-10
-0.390, -4.172e-10
-0.388, -4.027e-10
-0.386, -3.888e-10
-0.384, -3.751e-10
-0.382, -3.619e-10
-0.380, -3.488e-10
-0.378, -3.364e-10
-0.376, -3.247e-10
-0.374, -3.120e-10
-0.372, -2.954e-10
-0.370, -2.813e-10
-0.368, -2.676e-10
-0.366, -2.527e-10
-0.364, -2.368e-10
-0.362, -2.217e-10
-0.360, -2.094e-10
-0.358, -1.989e-10
-0.356, -1.842e-10
-0.354, -1.707e-10
-0.352, -1.585e-10
-0.350, -1.475e-10
-0.348, -1.337e-10
-0.346, -1.210e-10
-0.344, -1.096e-10
-0.342, -9.793e-11
-0.340, -8.467e-11
-0.338, -7.229e-11
-0.336, -6.040e-11
-0.334, -4.704e-11
-0.332, -3.466e-11
-0.330, -1.790e-11
-0.328, -6.395e-12
-0.326, 7.448e-12
-0.324, 2.051e-11
-0.322, 3.084e-11
-0.320, 4.274e-11
-0.318, 5.551e-11
-0.316, 6.759e-11
-0.314, 8.134e-11
-0.312, 9.099e-11
-0.310, 1.040e-10
-0.308, 1.152e-10
-0.306, 1.302e-10
-0.304, 1.399e-10
-0.302, 1.510e-10
-0.300, 1.603e-10
-0.298, 1.714e-10
-0.296, 1.796e-10
-0.294, 1.915e-10
-0.292, 2.054e-10
-0.290, 2.181e-10
-0.288, 2.303e-10
-0.286, 2.411e-10
-0.284, 2.545e-10
-0.282, 2.652e-10
-0.280, 2.767e-10
-0.278, 2.862e-10
-0.276, 2.995e-10
-0.274, 3.096e-10
-0.272, 3.194e-10
-0.270, 3.301e-10
-0.268, 3.419e-10
-0.266, 3.533e-10
-0.264, 3.635e-10
-0.262, 3.739e-10
-0.260, 3.851e-10
-0.258, 3.946e-10
-0.256, 4.034e-10
-0.254, 4.142e-10
-0.252, 4.270e-10
-0.250, 4.370e-10
-0.248, 4.502e-10
-0.246, 4.623e-10
-0.244, 4.760e-10
-0.242, 4.862e-10
-0.240, 4.992e-10
-0.238, 5.094e-10
-0.236, 5.203e-10
-0.234, 5.324e-10
-0.232, 5.414e-10
-0.230, 5.507e-10
-0.228, 5.629e-10
-0.226, 5.730e-10
-0.224, 5.825e-10
-0.222, 5.945e-10
-0.220, 6.038e-10
-0.218, 6.144e-10
-0.216, 6.231e-10
-0.214, 6.313e-10
-0.212, 6.420e-10
-0.210, 6.517e-10
-0.208, 6.600e-10
-0.206, 6.713e-10
-0.204, 6.774e-10
-0.202, 6.908e-10
-0.200, 7.022e-10
-0.198, 7.112e-10
-0.196, 7.214e-10
-0.194, 7.328e-10
-0.192, 7.407e-10
-0.190, 7.513e-10
-0.188, 7.592e-10
-0.186, 7.703e-10
-0.184, 7.785e-10
-0.182, 7.871e-10
-0.180, 7.992e-10
-0.178, 8.063e-10
-0.176, 8.167e-10
-0.174, 8.273e-10
-0.172, 8.376e-10
-0.170, 8.474e-10
-0.168, 8.565e-10
-0.166, 8.642e-10
-0.164, 8.744e-10
-0.162, 8.850e-10
-0.160, 8.941e-10
-0.158, 9.053e-10
-0.156, 9.147e-10
-0.154, 9.248e-10
-0.152, 9.344e-10
-0.150, 9.450e-10
-0.148, 9.555e-10
-0.146, 9.648e-10
-0.144, 9.731e-10
-0.142, 9.831e-10
-0.140, 9.928e-10
-0.138, 1.003e-9
-0.136, 1.013e-9
-0.134, 1.022e-9
-0.132, 1.031e-9
-0.130, 1.041e-9
-0.128, 1.049e-9
-0.126, 1.059e-9
-0.124, 1.069e-9
-0.122, 1.080e-9
-0.120, 1.091e-9
-0.118, 1.101e-9
-0.116, 1.111e-9
-0.114, 1.119e-9
-0.112, 1.128e-9
-0.110, 1.138e-9
-0.108, 1.148e-9
-0.106, 1.159e-9
-0.104, 1.170e-9
-0.102, 1.188e-9
-0.100, 1.195e-9
-0.098, 1.207e-9
-0.096, 1.219e-9
-0.094, 1.228e-9
-0.092, 1.240e-9
-0.090, 1.250e-9
-0.088, 1.261e-9
-0.086, 1.272e-9
-0.084, 1.284e-9
-0.082, 1.296e-9
-0.080, 1.308e-9
-0.078, 1.321e-9
-0.076, 1.332e-9
-0.074, 1.346e-9
-0.072, 1.359e-9
-0.070, 1.372e-9
-0.068, 1.385e-9
-0.066, 1.397e-9
-0.064, 1.411e-9
-0.062, 1.424e-9
-0.060, 1.440e-9
-0.058, 1.455e-9
-0.056, 1.468e-9
-0.054, 1.483e-9
-0.052, 1.496e-9
-0.050, 1.509e-9
-0.048, 1.524e-9
-0.046, 1.540e-9
-0.044, 1.556e-9
-0.042, 1.571e-9
-0.040, 1.587e-9
-0.038, 1.603e-9
-0.036, 1.620e-9
-0.034, 1.635e-9
-0.032, 1.653e-9
-0.030, 1.672e-9
-0.028, 1.689e-9
-0.026, 1.707e-9
-0.024, 1.725e-9
-0.022, 1.743e-9
-0.020, 1.762e-9
-0.018, 1.781e-9
-0.016, 1.801e-9
-0.014, 1.820e-9
-0.012, 1.839e-9
-0.010, 1.860e-9
-0.008, 1.883e-9
-0.006, 1.905e-9
-0.004, 1.928e-9
-0.002, 1.950e-9
0.000, 1.966e-9
0.002, 1.990e-9
0.004, 2.013e-9
0.006, 2.039e-9
0.008, 2.062e-9
0.010, 2.085e-9
0.012, 2.108e-9
0.014, 2.132e-9
0.016, 2.161e-9
0.018, 2.189e-9
0.020, 2.217e-9
0.022, 2.243e-9
0.024, 2.270e-9
0.026, 2.301e-9
0.028, 2.332e-9
0.030, 2.361e-9
0.032, 2.391e-9
0.034, 2.425e-9
0.036, 2.455e-9
0.038, 2.488e-9
0.040, 2.522e-9
0.042, 2.555e-9
0.044, 2.589e-9
0.046, 2.625e-9
0.048, 2.666e-9
0.050, 2.706e-9
0.052, 2.746e-9
0.054, 2.788e-9
0.056, 2.830e-9
0.058, 2.873e-9
0.060, 2.919e-9
0.062, 2.963e-9
0.064, 3.011e-9
0.066, 3.059e-9
0.068, 3.106e-9
0.070, 3.164e-9
0.072, 3.221e-9
0.074, 3.277e-9
0.076, 3.335e-9
0.078, 3.394e-9
0.080, 3.458e-9
0.082, 3.525e-9
0.084, 3.587e-9
0.086, 3.664e-9
0.088, 3.736e-9
0.090, 3.809e-9
0.092, 3.890e-9
0.094, 3.969e-9
0.096, 4.053e-9
0.098, 4.150e-9
0.100, 4.265e-9
0.102, 4.400e-9
0.104, 4.604e-9
0.106, 4.846e-9
0.108, 5.188e-9
0.110, 5.570e-9
0.112, 5.975e-9
0.114, 6.383e-9
0.116, 6.779e-9
0.118, 7.169e-9
0.120, 7.538e-9
0.122, 7.687e-9
0.124, 7.835e-9
0.126, 8.434e-9
0.128, 9.512e-9
0.130, 1.090e-8
0.132, 1.212e-8
0.134, 1.248e-8
0.136, 1.186e-8
0.138, 1.061e-8
0.140, 9.160e-9
0.142, 7.781e-9
0.144, 6.709e-9
0.146, 5.961e-9
0.148, 5.459e-9
0.150, 5.119e-9
0.152, 4.882e-9
0.154, 4.712e-9
0.156, 4.590e-9
0.158, 4.493e-9
0.160, 4.424e-9
0.162, 4.366e-9
0.164, 4.323e-9
0.166, 4.291e-9
0.168, 4.265e-9
0.170, 4.241e-9
0.172, 4.226e-9
0.174, 4.213e-9
0.176, 4.202e-9
0.178, 4.197e-9
0.180, 4.189e-9
0.182, 4.187e-9
0.184, 4.184e-9
0.186, 4.186e-9
0.188, 4.188e-9
0.190, 4.189e-9
0.192, 4.191e-9
0.194, 4.196e-9
0.196, 4.202e-9
0.198, 4.209e-9
0.200, 4.215e-9
0.202, 4.221e-9
0.204, 4.230e-9
0.206, 4.230e-9
0.208, 4.240e-9
0.210, 4.250e-9
0.212, 4.260e-9
0.214, 4.269e-9
0.216, 4.276e-9
0.218, 4.283e-9
0.220, 4.293e-9
0.222, 4.303e-9
0.224, 4.313e-9
0.226, 4.321e-9
0.228, 4.331e-9
0.230, 4.343e-9
0.232, 4.352e-9
0.234, 4.363e-9
0.236, 4.376e-9
0.238, 4.390e-9
0.240, 4.398e-9
0.242, 4.408e-9
0.244, 4.419e-9
0.246, 4.433e-9
0.248, 4.443e-9
0.250, 4.455e-9
0.252, 4.467e-9
0.254, 4.477e-9
0.256, 4.489e-9
0.258, 4.502e-9
0.260, 4.515e-9
0.262, 4.527e-9
0.264, 4.539e-9
0.266, 4.549e-9
0.268, 4.560e-9
0.270, 4.572e-9
0.272, 4.583e-9
0.274, 4.597e-9
0.276, 4.611e-9
0.278, 4.623e-9
0.280, 4.637e-9
0.282, 4.646e-9
0.284, 4.657e-9
0.286, 4.668e-9
0.288, 4.679e-9
0.290, 4.694e-9
0.292, 4.704e-9
0.294, 4.718e-9
0.296, 4.728e-9
0.298, 4.738e-9
0.300, 4.754e-9
0.302, 4.764e-9
0.304, 4.774e-9
0.306, 4.786e-9
0.308, 4.808e-9
0.310, 4.814e-9
0.312, 4.826e-9
0.314, 4.837e-9
0.316, 4.849e-9
0.318, 4.860e-9
0.320, 4.870e-9
0.322, 4.881e-9
0.324, 4.889e-9
0.326, 4.903e-9
0.328, 4.914e-9
0.330, 4.923e-9
0.332, 4.934e-9
0.334, 4.945e-9
0.336, 4.955e-9
0.338, 4.966e-9
0.340, 4.977e-9
0.342, 4.988e-9
0.344, 4.997e-9
0.346, 5.003e-9
0.348, 5.015e-9
0.350, 5.024e-9
0.352, 5.036e-9
0.354, 5.044e-9
0.356, 5.052e-9
0.358, 5.062e-9
0.360, 5.072e-9
0.362, 5.079e-9
0.364, 5.090e-9
0.366, 5.102e-9
0.368, 5.109e-9
0.370, 5.119e-9
0.372, 5.126e-9
0.374, 5.135e-9
0.376, 5.144e-9
0.378, 5.152e-9
0.380, 5.160e-9
0.382, 5.166e-9
0.384, 5.173e-9
0.386, 5.182e-9
0.388, 5.190e-9
0.390, 5.199e-9
0.392, 5.205e-9
0.394, 5.213e-9
0.396, 5.221e-9
0.398, 5.227e-9
0.400, 5.233e-9
0.402, 5.240e-9
0.404, 5.250e-9
0.406, 5.257e-9
0.408, 5.263e-9
0.410, 5.253e-9
0.412, 5.272e-9
0.414, 5.280e-9
0.416, 5.288e-9
0.418, 5.294e-9
0.420, 5.301e-9
0.422, 5.313e-9
0.424, 5.316e-9
0.426, 5.323e-9
0.428, 5.334e-9
0.430, 5.342e-9
0.432, 5.349e-9
0.434, 5.356e-9
0.436, 5.365e-9
0.438, 5.373e-9
0.440, 5.381e-9
0.442, 5.388e-9
0.444, 5.395e-9
0.446, 5.404e-9
0.448, 5.410e-9
0.450, 5.417e-9
0.452, 5.422e-9
0.454, 5.434e-9
0.456, 5.443e-9
0.458, 5.450e-9
0.460, 5.459e-9
0.462, 5.468e-9
0.464, 5.475e-9
0.466, 5.484e-9
0.468, 5.494e-9
0.470, 5.506e-9
0.472, 5.513e-9
0.474, 5.520e-9
0.476, 5.529e-9
0.478, 5.539e-9
0.480, 5.549e-9
0.482, 5.560e-9
0.484, 5.569e-9
0.486, 5.581e-9
0.488, 5.593e-9
0.490, 5.601e-9
0.492, 5.615e-9
0.494, 5.624e-9
0.496, 5.632e-9
0.498, 5.642e-9
0.500, 5.553e-9
0.498, 4.929e-9
0.496, 4.652e-9
0.494, 4.444e-9
0.492, 4.276e-9
0.490, 4.133e-9
0.488, 4.011e-9
0.486, 3.903e-9
0.484, 3.804e-9
0.482, 3.715e-9
0.480, 3.627e-9
0.478, 3.554e-9
0.476, 3.482e-9
0.474, 3.414e-9
0.472, 3.349e-9
0.470, 3.293e-9
0.468, 3.235e-9
0.466, 3.178e-9
0.464, 3.122e-9
0.462, 3.073e-9
0.460, 3.029e-9
0.458, 2.981e-9
0.456, 2.936e-9
0.454, 2.892e-9
0.452, 2.847e-9
0.450, 2.808e-9
0.448, 2.770e-9
0.446, 2.731e-9
0.444, 2.690e-9
0.442, 2.649e-9
0.440, 2.612e-9
0.438, 2.577e-9
0.436, 2.543e-9
0.434, 2.506e-9
0.432, 2.472e-9
0.430, 2.439e-9
0.428, 2.406e-9
0.426, 2.372e-9
0.424, 2.338e-9
0.422, 2.306e-9
0.420, 2.271e-9
0.418, 2.240e-9
0.416, 2.209e-9
0.414, 2.178e-9
0.412, 2.147e-9
0.410, 2.119e-9
0.408, 2.093e-9
0.406, 2.063e-9
0.404, 2.032e-9
0.402, 2.002e-9
0.400, 1.973e-9
0.398, 1.944e-9
0.396, 1.917e-9
0.394, 1.885e-9
0.392, 1.857e-9
0.390, 1.828e-9
0.388, 1.799e-9
0.386, 1.770e-9
0.384, 1.745e-9
0.382, 1.720e-9
0.380, 1.692e-9
0.378, 1.661e-9
0.376, 1.636e-9
0.374, 1.611e-9
0.372, 1.582e-9
0.370, 1.557e-9
0.368, 1.532e-9
0.366, 1.507e-9
0.364, 1.483e-9
0.362, 1.456e-9
0.360, 1.431e-9
0.358, 1.405e-9
0.356, 1.378e-9
0.354, 1.355e-9
0.352, 1.327e-9
0.350, 1.303e-9
0.348, 1.278e-9
0.346, 1.254e-9
0.344, 1.230e-9
0.342, 1.206e-9
0.340, 1.180e-9
0.338, 1.155e-9
0.336, 1.133e-9
0.334, 1.111e-9
0.332, 1.091e-9
0.330, 1.069e-9
0.328, 1.046e-9
0.326, 1.025e-9
0.324, 1.001e-9
0.322, 9.805e-10
0.320, 9.597e-10
0.318, 9.364e-10
0.316, 9.146e-10
0.314, 8.930e-10
0.312, 8.699e-10
0.310, 8.492e-10
0.308, 8.270e-10
0.306, 8.015e-10
0.304, 7.839e-10
0.302, 7.659e-10
0.300, 7.433e-10
0.298, 7.243e-10
0.296, 7.024e-10
0.294, 6.820e-10
0.292, 6.624e-10
0.290, 6.447e-10
0.288, 6.253e-10
0.286, 6.077e-10
0.284, 5.880e-10
0.282, 5.689e-10
0.280, 5.486e-10
0.278, 5.321e-10
0.276, 5.122e-10
0.274, 4.917e-10
0.272, 4.714e-10
0.270, 4.508e-10
0.268, 4.308e-10
0.266, 4.125e-10
0.264, 3.976e-10
0.262, 3.780e-10
0.260, 3.614e-10
0.258, 3.447e-10
0.256, 3.298e-10
0.254, 3.108e-10
0.252, 2.953e-10
0.250, 2.789e-10
0.248, 2.625e-10
0.246, 2.477e-10
0.244, 2.294e-10
0.242, 2.138e-10
0.240, 1.976e-10
0.238, 1.799e-10
0.236, 1.650e-10
0.234, 1.519e-10
0.232, 1.364e-10
0.230, 1.222e-10
0.228, 1.066e-10
0.226, 9.138e-11
0.224, 7.773e-11
0.222, 6.272e-11
0.220, 4.819e-11
0.218, 3.435e-11
0.216, 2.110e-11
0.214, 5.985e-12
0.212, -1.332e-11
0.210, -2.969e-11
0.208, -4.471e-11
0.206, -5.826e-11
0.204, -6.917e-11
0.202, -8.516e-11
0.200, -9.949e-11
0.198, -1.163e-10
0.196, -1.296e-10
0.194, -1.433e-10
0.192, -1.563e-10
0.190, -1.715e-10
0.188, -1.844e-10
0.186, -1.991e-10
0.184, -2.127e-10
0.182, -2.262e-10
0.180, -2.433e-10
0.178, -2.585e-10
0.176, -2.756e-10
0.174, -2.905e-10
0.172, -3.065e-10
0.170, -3.215e-10
0.168, -3.341e-10
0.166, -3.467e-10
0.164, -3.604e-10
0.162, -3.747e-10
0.160, -3.882e-10
0.158, -4.036e-10
0.156, -4.197e-10
0.154, -4.339e-10
0.152, -4.491e-10
0.150, -4.615e-10
0.148, -4.783e-10
0.146, -4.969e-10
0.144, -5.164e-10
0.142, -5.329e-10
0.140, -5.473e-10
0.138, -5.640e-10
0.136, -5.790e-10
0.134, -5.948e-10
0.132, -6.109e-10
0.130, -6.280e-10
0.128, -6.449e-10
0.126, -6.618e-10
0.124, -6.778e-10
0.122, -6.951e-10
0.120, -7.110e-10
0.118, -7.261e-10
0.116, -7.463e-10
0.114, -7.652e-10
0.112, -7.830e-10
0.110, -8.003e-10
0.108, -8.167e-10
0.106, -8.310e-10
0.104, -8.474e-10
0.102, -8.717e-10
0.100, -8.869e-10
0.098, -9.052e-10
0.096, -9.237e-10
0.094, -9.438e-10
0.092, -9.609e-10
0.090, -9.803e-10
0.088, -1.002e-9
0.086, -1.023e-9
0.084, -1.043e-9
0.082, -1.064e-9
0.080, -1.083e-9
0.078, -1.104e-9
0.076, -1.123e-9
0.074, -1.144e-9
0.072, -1.164e-9
0.070, -1.185e-9
0.068, -1.208e-9
0.066, -1.231e-9
0.064, -1.254e-9
0.062, -1.278e-9
0.060, -1.300e-9
0.058, -1.321e-9
0.056, -1.342e-9
0.054, -1.366e-9
0.052, -1.388e-9
0.050, -1.409e-9
0.048, -1.433e-9
0.046, -1.458e-9
0.044, -1.483e-9
0.042, -1.510e-9
0.040, -1.533e-9
0.038, -1.557e-9
0.036, -1.583e-9
0.034, -1.606e-9
0.032, -1.632e-9
0.030, -1.654e-9
0.028, -1.676e-9
0.026, -1.702e-9
0.024, -1.729e-9
0.022, -1.755e-9
0.020, -1.780e-9
0.018, -1.805e-9
0.016, -1.827e-9
0.014, -1.854e-9
0.012, -1.880e-9
0.010, -1.906e-9
0.008, -1.929e-9
0.006, -1.953e-9
0.004, -1.979e-9
0.002, -2.003e-9
-0.000, -2.020e-9
-0.002, -2.046e-9
-0.004, -2.069e-9
-0.006, -2.093e-9
-0.008, -2.116e-9
-0.010, -2.138e-9
-0.012, -2.159e-9
-0.014, -2.178e-9
-0.016, -2.199e-9
-0.018, -2.220e-9
-0.020, -2.241e-9
-0.022, -2.259e-9
-0.024, -2.277e-9
-0.026, -2.294e-9
-0.028, -2.313e-9
-0.030, -2.334e-9
-0.032, -2.358e-9
-0.034, -2.378e-9
-0.036, -2.397e-9
-0.038, -2.421e-9
-0.040, -2.445e-9
-0.042, -2.469e-9
-0.044, -2.492e-9
-0.046, -2.517e-9
-0.048, -2.537e-9
-0.050, -2.565e-9
-0.052, -2.592e-9
-0.054, -2.602e-9
-0.056, -2.608e-9
-0.058, -2.604e-9
-0.060, -2.597e-9
-0.062, -2.587e-9
-0.064, -2.612e-9
-0.066, -2.601e-9
-0.068, -2.583e-9
-0.070, -2.581e-9
-0.072, -2.580e-9
-0.074, -2.585e-9
-0.076, -2.589e-9
-0.078, -2.594e-9
-0.080, -2.606e-9
-0.082, -2.609e-9
-0.084, -2.627e-9
-0.086, -2.621e-9
-0.088, -2.626e-9
-0.090, -2.636e-9
-0.092, -2.645e-9
-0.094, -2.666e-9
-0.096, -2.647e-9
-0.098, -2.656e-9
-0.100, -2.666e-9
-0.102, -2.681e-9
-0.104, -2.672e-9
-0.106, -2.675e-9
-0.108, -2.688e-9
-0.110, -2.730e-9
-0.112, -2.719e-9
-0.114, -2.697e-9
-0.116, -2.727e-9
-0.118, -2.704e-9
-0.120, -2.707e-9
-0.122, -2.721e-9
-0.124, -2.715e-9
-0.126, -2.733e-9
-0.128, -2.750e-9
-0.130, -2.730e-9
-0.132, -2.738e-9
-0.134, -2.763e-9
-0.136, -2.743e-9
-0.138, -2.741e-9
-0.140, -2.765e-9
-0.142, -2.750e-9
-0.144, -2.751e-9
-0.146, -2.780e-9
-0.148, -2.755e-9
-0.150, -2.758e-9
-0.152, -2.766e-9
-0.154, -2.778e-9
-0.156, -2.770e-9
-0.158, -2.768e-9
-0.160, -2.791e-9
-0.162, -2.789e-9
-0.164, -2.778e-9
-0.166, -2.781e-9
-0.168, -2.785e-9
-0.170, -2.784e-9
-0.172, -2.788e-9
-0.174, -2.815e-9
-0.176, -2.796e-9
-0.178, -2.819e-9
-0.180, -2.819e-9
-0.182, -2.812e-9
-0.184, -2.807e-9
-0.186, -2.817e-9
-0.188, -2.814e-9
-0.190, -2.863e-9
-0.192, -2.829e-9
-0.194, -2.831e-9
-0.196, -2.827e-9
-0.198, -2.845e-9
-0.200, -2.838e-9
-0.202, -2.839e-9
-0.204, -2.844e-9
-0.206, -2.844e-9
-0.208, -2.851e-9
-0.210, -2.891e-9
-0.212, -2.865e-9
-0.214, -2.860e-9
-0.216, -2.865e-9
-0.218, -2.870e-9
-0.220, -2.873e-9
-0.222, -2.882e-9
-0.224, -2.897e-9
-0.226, -2.900e-9
-0.228, -2.898e-9
-0.230, -2.891e-9
-0.232, -2.903e-9
-0.234, -2.935e-9
-0.236, -2.922e-9
-0.238, -2.910e-9
-0.240, -2.917e-9
-0.242, -2.923e-9
-0.244, -2.936e-9
-0.246, -2.956e-9
-0.248, -2.932e-9
-0.250, -2.944e-9
-0.252, -2.957e-9
-0.254, -2.960e-9
-0.256, -2.957e-9
-0.258, -2.972e-9
-0.260, -2.964e-9
-0.262, -2.975e-9
-0.264, -2.972e-9
-0.266, -2.975e-9
-0.268, -2.982e-9
-0.270, -2.987e-9
-0.272, -3.000e-9
-0.274, -3.014e-9
-0.276, -3.008e-9
-0.278, -3.010e-9
-0.280, -3.026e-9
-0.282, -3.025e-9
-0.284, -3.025e-9
-0.286, -3.029e-9
-0.288, -3.033e-9
-0.290, -3.040e-9
-0.292, -3.046e-9
-0.294, -3.055e-9
-0.296, -3.061e-9
-0.298, -3.067e-9
-0.300, -3.082e-9
-0.302, -3.078e-9
-0.304, -3.083e-9
-0.306, -3.094e-9
-0.308, -3.108e-9
-0.310, -3.103e-9
-0.312, -3.125e-9
-0.314, -3.116e-9
-0.316, -3.122e-9
-0.318, -3.129e-9
-0.320, -3.145e-9
-0.322, -3.141e-9
-0.324, -3.147e-9
-0.326, -3.155e-9
-0.328, -3.161e-9
-0.330, -3.172e-9
-0.332, -3.180e-9
-0.334, -3.180e-9
-0.336, -3.187e-9
-0.338, -3.204e-9
-0.340, -3.202e-9
-0.342, -3.208e-9
-0.344, -3.215e-9
-0.346, -3.229e-9
-0.348, -3.229e-9
-0.350, -3.235e-9
-0.352, -3.242e-9
-0.354, -3.251e-9
-0.356, -3.256e-9
-0.358, -3.262e-9
-0.360, -3.277e-9
-0.362, -3.276e-9
-0.364, -3.285e-9
-0.366, -3.294e-9
-0.368, -3.303e-9
-0.370, -3.306e-9
-0.372, -3.313e-9
-0.374, -3.328e-9
-0.376, -3.330e-9
-0.378, -3.338e-9
-0.380, -3.346e-9
-0.382, -3.352e-9
-0.384, -3.365e-9
-0.386, -3.366e-9
-0.388, -3.376e-9
-0.390, -3.384e-9
-0.392, -3.397e-9
-0.394, -3.397e-9
-0.396, -3.407e-9
-0.398, -3.414e-9
-0.400, -3.421e-9
-0.402, -3.428e-9
-0.404, -3.439e-9
-0.406, -3.447e-9
-0.408, -3.463e-9
-0.410, -3.462e-9
-0.412, -3.475e-9
-0.414, -3.478e-9
-0.416, -3.485e-9
-0.418, -3.491e-9
-0.420, -3.499e-9
-0.422, -3.506e-9
-0.424, -3.513e-9
-0.426, -3.519e-9
-0.428, -3.529e-9
-0.430, -3.536e-9
-0.432, -3.548e-9
-0.434, -3.553e-9
-0.436, -3.560e-9
-0.438, -3.570e-9
-0.440, -3.578e-9
-0.442, -3.588e-9
-0.444, -3.597e-9
-0.446, -3.605e-9
-0.448, -3.614e-9
-0.450, -3.626e-9
-0.452, -3.634e-9
-0.454, -3.650e-9
-0.456, -3.654e-9
-0.458, -3.662e-9
-0.460, -3.675e-9
-0.462, -3.682e-9
-0.464, -3.693e-9
-0.466, -3.706e-9
-0.468, -3.716e-9
-0.470, -3.725e-9
-0.472, -3.734e-9
-0.474, -3.740e-9
-0.476, -3.752e-9
-0.478, -3.764e-9
-0.480, -3.766e-9
-0.482, -3.777e-9
-0.484, -3.788e-9
-0.486, -3.798e-9
-0.488, -3.809e-9
-0.490, -3.818e-9
-0.492, -3.829e-9
-0.494, -3.840e-9
-0.496, -3.849e-9
-0.498, -3.864e-9
-0.499, -3.866e-9