File: Fig 4/Fig 3b CV surface light/CV_surface_light_9.csv
Sept. 26, 2024   14:55:57
Cyclic Voltammetry
File: c:\users\secm\desktop\data\lmxlm2\+12 2319-1\26-09-2024 - lamp inside cage\region 2\+12 2319-1 fto cv_cells_light_surface_20_9.csv
Data Source:  Experiment
Instrument Model:  CHI920C
Ref. Electrode:
Header:
Note:

Init E (V) = -0.5
High E (V) = 0.5
Low E (V) = -0.5
Init P/N = P
Scan Rate (V/s) = 0.05
Segment = 2
Sample Interval (V) = 0.001
Quiet Time (sec) = 10
Sensitivity (A/V) = 1e-7

Results:

Channel 1:
Segment 1:
Ep = 0.134V
ip = 1.358e-8A
Ah = 6.244e-9C

Segment 2:

Potential/V, Current/A

-0.500, -1.815e-9
-0.498, -1.645e-9
-0.496, -1.575e-9
-0.494, -1.520e-9
-0.492, -1.468e-9
-0.490, -1.425e-9
-0.488, -1.386e-9
-0.486, -1.352e-9
-0.484, -1.318e-9
-0.482, -1.289e-9
-0.480, -1.256e-9
-0.478, -1.225e-9
-0.476, -1.196e-9
-0.474, -1.171e-9
-0.472, -1.146e-9
-0.470, -1.120e-9
-0.468, -1.097e-9
-0.466, -1.073e-9
-0.464, -1.051e-9
-0.462, -1.027e-9
-0.460, -1.004e-9
-0.458, -9.800e-10
-0.456, -9.588e-10
-0.454, -9.375e-10
-0.452, -9.174e-10
-0.450, -8.979e-10
-0.448, -8.773e-10
-0.446, -8.592e-10
-0.444, -8.412e-10
-0.442, -8.239e-10
-0.440, -8.077e-10
-0.438, -7.921e-10
-0.436, -7.710e-10
-0.434, -7.534e-10
-0.432, -7.366e-10
-0.430, -7.175e-10
-0.428, -7.016e-10
-0.426, -6.839e-10
-0.424, -6.690e-10
-0.422, -6.531e-10
-0.420, -6.349e-10
-0.418, -6.193e-10
-0.416, -6.032e-10
-0.414, -5.879e-10
-0.412, -5.729e-10
-0.410, -5.582e-10
-0.408, -5.415e-10
-0.406, -5.264e-10
-0.404, -5.076e-10
-0.402, -4.915e-10
-0.400, -4.756e-10
-0.398, -4.607e-10
-0.396, -4.470e-10
-0.394, -4.324e-10
-0.392, -4.184e-10
-0.390, -4.025e-10
-0.388, -3.880e-10
-0.386, -3.763e-10
-0.384, -3.620e-10
-0.382, -3.492e-10
-0.380, -3.347e-10
-0.378, -3.226e-10
-0.376, -3.092e-10
-0.374, -2.956e-10
-0.372, -2.799e-10
-0.370, -2.675e-10
-0.368, -2.521e-10
-0.366, -2.360e-10
-0.364, -2.215e-10
-0.362, -2.094e-10
-0.360, -1.951e-10
-0.358, -1.837e-10
-0.356, -1.699e-10
-0.354, -1.583e-10
-0.352, -1.446e-10
-0.350, -1.323e-10
-0.348, -1.192e-10
-0.346, -1.088e-10
-0.344, -9.657e-11
-0.342, -8.380e-11
-0.340, -7.249e-11
-0.338, -6.050e-11
-0.336, -4.851e-11
-0.334, -3.359e-11
-0.332, -1.936e-11
-0.330, -4.543e-12
-0.328, 9.300e-12
-0.326, 2.080e-11
-0.324, 3.240e-11
-0.322, 4.508e-11
-0.320, 5.687e-11
-0.318, 6.798e-11
-0.316, 8.046e-11
-0.314, 9.099e-11
-0.312, 1.022e-10
-0.310, 1.129e-10
-0.308, 1.233e-10
-0.306, 1.400e-10
-0.304, 1.492e-10
-0.302, 1.590e-10
-0.300, 1.711e-10
-0.298, 1.823e-10
-0.296, 1.940e-10
-0.294, 2.047e-10
-0.292, 2.177e-10
-0.290, 2.305e-10
-0.288, 2.413e-10
-0.286, 2.518e-10
-0.284, 2.621e-10
-0.282, 2.742e-10
-0.280, 2.851e-10
-0.278, 2.971e-10
-0.276, 3.081e-10
-0.274, 3.210e-10
-0.272, 3.313e-10
-0.270, 3.406e-10
-0.268, 3.525e-10
-0.266, 3.633e-10
-0.264, 3.737e-10
-0.262, 3.843e-10
-0.260, 3.937e-10
-0.258, 4.041e-10
-0.256, 4.141e-10
-0.254, 4.232e-10
-0.252, 4.353e-10
-0.250, 4.487e-10
-0.248, 4.603e-10
-0.246, 4.731e-10
-0.244, 4.854e-10
-0.242, 4.948e-10
-0.240, 5.062e-10
-0.238, 5.181e-10
-0.236, 5.295e-10
-0.234, 5.390e-10
-0.232, 5.499e-10
-0.230, 5.597e-10
-0.228, 5.702e-10
-0.226, 5.824e-10
-0.224, 5.905e-10
-0.222, 6.019e-10
-0.220, 6.108e-10
-0.218, 6.208e-10
-0.216, 6.300e-10
-0.214, 6.391e-10
-0.212, 6.504e-10
-0.210, 6.592e-10
-0.208, 6.688e-10
-0.206, 6.772e-10
-0.204, 6.839e-10
-0.202, 6.984e-10
-0.200, 7.081e-10
-0.198, 7.183e-10
-0.196, 7.283e-10
-0.194, 7.391e-10
-0.192, 7.472e-10
-0.190, 7.566e-10
-0.188, 7.661e-10
-0.186, 7.758e-10
-0.184, 7.867e-10
-0.182, 7.940e-10
-0.180, 8.046e-10
-0.178, 8.125e-10
-0.176, 8.224e-10
-0.174, 8.321e-10
-0.172, 8.424e-10
-0.170, 8.524e-10
-0.168, 8.632e-10
-0.166, 8.710e-10
-0.164, 8.825e-10
-0.162, 8.912e-10
-0.160, 9.014e-10
-0.158, 9.103e-10
-0.156, 9.192e-10
-0.154, 9.298e-10
-0.152, 9.402e-10
-0.150, 9.501e-10
-0.148, 9.603e-10
-0.146, 9.700e-10
-0.144, 9.792e-10
-0.142, 9.886e-10
-0.140, 9.967e-10
-0.138, 1.005e-9
-0.136, 1.015e-9
-0.134, 1.026e-9
-0.132, 1.035e-9
-0.130, 1.045e-9
-0.128, 1.053e-9
-0.126, 1.064e-9
-0.124, 1.074e-9
-0.122, 1.083e-9
-0.120, 1.093e-9
-0.118, 1.102e-9
-0.116, 1.111e-9
-0.114, 1.120e-9
-0.112, 1.130e-9
-0.110, 1.139e-9
-0.108, 1.151e-9
-0.106, 1.161e-9
-0.104, 1.173e-9
-0.102, 1.190e-9
-0.100, 1.199e-9
-0.098, 1.210e-9
-0.096, 1.220e-9
-0.094, 1.231e-9
-0.092, 1.240e-9
-0.090, 1.252e-9
-0.088, 1.262e-9
-0.086, 1.273e-9
-0.084, 1.287e-9
-0.082, 1.296e-9
-0.080, 1.307e-9
-0.078, 1.321e-9
-0.076, 1.332e-9
-0.074, 1.347e-9
-0.072, 1.360e-9
-0.070, 1.373e-9
-0.068, 1.387e-9
-0.066, 1.400e-9
-0.064, 1.412e-9
-0.062, 1.427e-9
-0.060, 1.442e-9
-0.058, 1.457e-9
-0.056, 1.471e-9
-0.054, 1.483e-9
-0.052, 1.498e-9
-0.050, 1.512e-9
-0.048, 1.526e-9
-0.046, 1.540e-9
-0.044, 1.556e-9
-0.042, 1.573e-9
-0.040, 1.589e-9
-0.038, 1.604e-9
-0.036, 1.621e-9
-0.034, 1.637e-9
-0.032, 1.655e-9
-0.030, 1.673e-9
-0.028, 1.691e-9
-0.026, 1.709e-9
-0.024, 1.728e-9
-0.022, 1.745e-9
-0.020, 1.764e-9
-0.018, 1.783e-9
-0.016, 1.804e-9
-0.014, 1.823e-9
-0.012, 1.844e-9
-0.010, 1.865e-9
-0.008, 1.886e-9
-0.006, 1.910e-9
-0.004, 1.932e-9
-0.002, 1.953e-9
0.000, 1.970e-9
0.002, 1.996e-9
0.004, 2.019e-9
0.006, 2.045e-9
0.008, 2.069e-9
0.010, 2.091e-9
0.012, 2.116e-9
0.014, 2.142e-9
0.016, 2.172e-9
0.018, 2.200e-9
0.020, 2.227e-9
0.022, 2.254e-9
0.024, 2.284e-9
0.026, 2.312e-9
0.028, 2.347e-9
0.030, 2.377e-9
0.032, 2.409e-9
0.034, 2.441e-9
0.036, 2.473e-9
0.038, 2.506e-9
0.040, 2.541e-9
0.042, 2.576e-9
0.044, 2.611e-9
0.046, 2.652e-9
0.048, 2.693e-9
0.050, 2.733e-9
0.052, 2.773e-9
0.054, 2.817e-9
0.056, 2.860e-9
0.058, 2.905e-9
0.060, 2.951e-9
0.062, 2.998e-9
0.064, 3.048e-9
0.066, 3.097e-9
0.068, 3.153e-9
0.070, 3.213e-9
0.072, 3.273e-9
0.074, 3.328e-9
0.076, 3.393e-9
0.078, 3.459e-9
0.080, 3.523e-9
0.082, 3.589e-9
0.084, 3.667e-9
0.086, 3.743e-9
0.088, 3.818e-9
0.090, 3.897e-9
0.092, 3.981e-9
0.094, 4.065e-9
0.096, 4.165e-9
0.098, 4.269e-9
0.100, 4.388e-9
0.102, 4.552e-9
0.104, 4.772e-9
0.106, 5.062e-9
0.108, 5.431e-9
0.110, 5.878e-9
0.112, 6.366e-9
0.114, 6.874e-9
0.116, 7.386e-9
0.118, 7.972e-9
0.120, 8.585e-9
0.122, 8.946e-9
0.124, 9.088e-9
0.126, 9.616e-9
0.128, 1.107e-8
0.130, 1.321e-8
0.132, 1.523e-8
0.134, 1.594e-8
0.136, 1.490e-8
0.138, 1.287e-8
0.140, 1.063e-8
0.142, 8.653e-9
0.144, 7.190e-9
0.146, 6.241e-9
0.148, 5.635e-9
0.150, 5.243e-9
0.152, 4.980e-9
0.154, 4.793e-9
0.156, 4.665e-9
0.158, 4.562e-9
0.160, 4.486e-9
0.162, 4.426e-9
0.164, 4.379e-9
0.166, 4.339e-9
0.168, 4.311e-9
0.170, 4.287e-9
0.172, 4.271e-9
0.174, 4.258e-9
0.176, 4.246e-9
0.178, 4.237e-9
0.180, 4.228e-9
0.182, 4.225e-9
0.184, 4.223e-9
0.186, 4.223e-9
0.188, 4.224e-9
0.190, 4.224e-9
0.192, 4.226e-9
0.194, 4.228e-9
0.196, 4.232e-9
0.198, 4.238e-9
0.200, 4.244e-9
0.202, 4.248e-9
0.204, 4.254e-9
0.206, 4.254e-9
0.208, 4.264e-9
0.210, 4.271e-9
0.212, 4.279e-9
0.214, 4.286e-9
0.216, 4.294e-9
0.218, 4.301e-9
0.220, 4.311e-9
0.222, 4.320e-9
0.224, 4.329e-9
0.226, 4.341e-9
0.228, 4.350e-9
0.230, 4.362e-9
0.232, 4.372e-9
0.234, 4.384e-9
0.236, 4.393e-9
0.238, 4.404e-9
0.240, 4.414e-9
0.242, 4.425e-9
0.244, 4.432e-9
0.246, 4.443e-9
0.248, 4.454e-9
0.250, 4.467e-9
0.252, 4.478e-9
0.254, 4.488e-9
0.256, 4.500e-9
0.258, 4.514e-9
0.260, 4.523e-9
0.262, 4.536e-9
0.264, 4.547e-9
0.266, 4.558e-9
0.268, 4.571e-9
0.270, 4.581e-9
0.272, 4.592e-9
0.274, 4.605e-9
0.276, 4.620e-9
0.278, 4.630e-9
0.280, 4.643e-9
0.282, 4.652e-9
0.284, 4.666e-9
0.286, 4.677e-9
0.288, 4.687e-9
0.290, 4.698e-9
0.292, 4.710e-9
0.294, 4.722e-9
0.296, 4.730e-9
0.298, 4.743e-9
0.300, 4.755e-9
0.302, 4.766e-9
0.304, 4.775e-9
0.306, 4.786e-9
0.308, 4.810e-9
0.310, 4.817e-9
0.312, 4.827e-9
0.314, 4.838e-9
0.316, 4.850e-9
0.318, 4.863e-9
0.320, 4.872e-9
0.322, 4.882e-9
0.324, 4.891e-9
0.326, 4.904e-9
0.328, 4.916e-9
0.330, 4.923e-9
0.332, 4.935e-9
0.334, 4.945e-9
0.336, 4.953e-9
0.338, 4.964e-9
0.340, 4.975e-9
0.342, 4.984e-9
0.344, 4.993e-9
0.346, 5.001e-9
0.348, 5.013e-9
0.350, 5.021e-9
0.352, 5.031e-9
0.354, 5.039e-9
0.356, 5.048e-9
0.358, 5.058e-9
0.360, 5.067e-9
0.362, 5.072e-9
0.364, 5.086e-9
0.366, 5.095e-9
0.368, 5.103e-9
0.370, 5.113e-9
0.372, 5.119e-9
0.374, 5.126e-9
0.376, 5.135e-9
0.378, 5.144e-9
0.380, 5.152e-9
0.382, 5.159e-9
0.384, 5.163e-9
0.386, 5.171e-9
0.388, 5.178e-9
0.390, 5.187e-9
0.392, 5.194e-9
0.394, 5.200e-9
0.396, 5.210e-9
0.398, 5.216e-9
0.400, 5.223e-9
0.402, 5.230e-9
0.404, 5.237e-9
0.406, 5.245e-9
0.408, 5.250e-9
0.410, 5.241e-9
0.412, 5.258e-9
0.414, 5.266e-9
0.416, 5.275e-9
0.418, 5.283e-9
0.420, 5.291e-9
0.422, 5.298e-9
0.424, 5.303e-9
0.426, 5.310e-9
0.428, 5.319e-9
0.430, 5.329e-9
0.432, 5.335e-9
0.434, 5.342e-9
0.436, 5.351e-9
0.438, 5.359e-9
0.440, 5.367e-9
0.442, 5.373e-9
0.444, 5.381e-9
0.446, 5.386e-9
0.448, 5.393e-9
0.450, 5.401e-9
0.452, 5.409e-9
0.454, 5.418e-9
0.456, 5.428e-9
0.458, 5.433e-9
0.460, 5.442e-9
0.462, 5.449e-9
0.464, 5.458e-9
0.466, 5.468e-9
0.468, 5.480e-9
0.470, 5.489e-9
0.472, 5.498e-9
0.474, 5.507e-9
0.476, 5.516e-9
0.478, 5.526e-9
0.480, 5.534e-9
0.482, 5.545e-9
0.484, 5.555e-9
0.486, 5.566e-9
0.488, 5.577e-9
0.490, 5.586e-9
0.492, 5.599e-9
0.494, 5.611e-9
0.496, 5.619e-9
0.498, 5.631e-9
0.500, 5.540e-9
0.498, 4.913e-9
0.496, 4.632e-9
0.494, 4.422e-9
0.492, 4.256e-9
0.490, 4.110e-9
0.488, 3.988e-9
0.486, 3.880e-9
0.484, 3.780e-9
0.482, 3.691e-9
0.480, 3.602e-9
0.478, 3.530e-9
0.476, 3.458e-9
0.474, 3.390e-9
0.472, 3.324e-9
0.470, 3.267e-9
0.468, 3.210e-9
0.466, 3.152e-9
0.464, 3.097e-9
0.462, 3.049e-9
0.460, 3.004e-9
0.458, 2.956e-9
0.456, 2.911e-9
0.454, 2.867e-9
0.452, 2.823e-9
0.450, 2.786e-9
0.448, 2.746e-9
0.446, 2.706e-9
0.444, 2.662e-9
0.442, 2.622e-9
0.440, 2.589e-9
0.438, 2.553e-9
0.436, 2.517e-9
0.434, 2.483e-9
0.432, 2.447e-9
0.430, 2.414e-9
0.428, 2.379e-9
0.426, 2.346e-9
0.424, 2.314e-9
0.422, 2.281e-9
0.420, 2.249e-9
0.418, 2.217e-9
0.416, 2.185e-9
0.414, 2.152e-9
0.412, 2.121e-9
0.410, 2.097e-9
0.408, 2.071e-9
0.406, 2.040e-9
0.404, 2.009e-9
0.402, 1.979e-9
0.400, 1.949e-9
0.398, 1.920e-9
0.396, 1.890e-9
0.394, 1.860e-9
0.392, 1.832e-9
0.390, 1.802e-9
0.388, 1.772e-9
0.386, 1.746e-9
0.384, 1.721e-9
0.382, 1.691e-9
0.380, 1.663e-9
0.378, 1.635e-9
0.376, 1.607e-9
0.374, 1.583e-9
0.372, 1.556e-9
0.370, 1.531e-9
0.368, 1.505e-9
0.366, 1.481e-9
0.364, 1.455e-9
0.362, 1.426e-9
0.360, 1.401e-9
0.358, 1.377e-9
0.356, 1.350e-9
0.354, 1.323e-9
0.352, 1.298e-9
0.350, 1.276e-9
0.348, 1.252e-9
0.346, 1.227e-9
0.344, 1.201e-9
0.342, 1.177e-9
0.340, 1.151e-9
0.338, 1.129e-9
0.336, 1.107e-9
0.334, 1.085e-9
0.332, 1.061e-9
0.330, 1.039e-9
0.328, 1.018e-9
0.326, 9.947e-10
0.324, 9.729e-10
0.322, 9.528e-10
0.320, 9.286e-10
0.318, 9.054e-10
0.316, 8.833e-10
0.314, 8.605e-10
0.312, 8.380e-10
0.310, 8.163e-10
0.308, 7.958e-10
0.306, 7.699e-10
0.304, 7.517e-10
0.302, 7.314e-10
0.300, 7.104e-10
0.298, 6.895e-10
0.296, 6.700e-10
0.294, 6.499e-10
0.292, 6.300e-10
0.290, 6.112e-10
0.288, 5.905e-10
0.286, 5.704e-10
0.284, 5.518e-10
0.282, 5.325e-10
0.280, 5.145e-10
0.278, 4.951e-10
0.276, 4.721e-10
0.274, 4.486e-10
0.272, 4.291e-10
0.270, 4.116e-10
0.268, 3.943e-10
0.266, 3.763e-10
0.264, 3.605e-10
0.262, 3.428e-10
0.260, 3.249e-10
0.258, 3.089e-10
0.256, 2.931e-10
0.254, 2.763e-10
0.252, 2.586e-10
0.250, 2.396e-10
0.248, 2.248e-10
0.246, 2.074e-10
0.244, 1.880e-10
0.242, 1.730e-10
0.240, 1.588e-10
0.238, 1.456e-10
0.236, 1.303e-10
0.234, 1.152e-10
0.232, 1.011e-10
0.230, 8.436e-11
0.228, 7.023e-11
0.226, 5.619e-11
0.224, 4.010e-11
0.222, 2.421e-11
0.220, 8.910e-12
0.218, -6.102e-12
0.216, -2.258e-11
0.214, -3.808e-11
0.212, -5.280e-11
0.210, -6.722e-11
0.208, -8.116e-11
0.206, -9.579e-11
0.204, -1.061e-10
0.202, -1.220e-10
0.200, -1.361e-10
0.198, -1.501e-10
0.196, -1.653e-10
0.194, -1.790e-10
0.192, -1.931e-10
0.190, -2.052e-10
0.188, -2.202e-10
0.186, -2.344e-10
0.184, -2.504e-10
0.182, -2.648e-10
0.180, -2.813e-10
0.178, -2.959e-10
0.176, -3.137e-10
0.174, -3.259e-10
0.172, -3.392e-10
0.170, -3.512e-10
0.168, -3.668e-10
0.166, -3.794e-10
0.164, -3.943e-10
0.162, -4.090e-10
0.160, -4.247e-10
0.158, -4.378e-10
0.156, -4.526e-10
0.154, -4.672e-10
0.152, -4.822e-10
0.150, -5.010e-10
0.148, -5.185e-10
0.146, -5.371e-10
0.144, -5.515e-10
0.142, -5.673e-10
0.140, -5.833e-10
0.138, -5.989e-10
0.136, -6.136e-10
0.134, -6.289e-10
0.132, -6.458e-10
0.130, -6.625e-10
0.128, -6.806e-10
0.126, -6.949e-10
0.124, -7.117e-10
0.122, -7.295e-10
0.120, -7.463e-10
0.118, -7.625e-10
0.116, -7.823e-10
0.114, -8.001e-10
0.112, -8.154e-10
0.110, -8.323e-10
0.108, -8.503e-10
0.106, -8.678e-10
0.104, -8.852e-10
0.102, -9.124e-10
0.100, -9.267e-10
0.098, -9.437e-10
0.096, -9.627e-10
0.094, -9.842e-10
0.092, -1.005e-9
0.090, -1.027e-9
0.088, -1.047e-9
0.086, -1.067e-9
0.084, -1.085e-9
0.082, -1.107e-9
0.080, -1.128e-9
0.078, -1.148e-9
0.076, -1.169e-9
0.074, -1.190e-9
0.072, -1.213e-9
0.070, -1.238e-9
0.068, -1.264e-9
0.066, -1.286e-9
0.064, -1.308e-9
0.062, -1.329e-9
0.060, -1.351e-9
0.058, -1.376e-9
0.056, -1.401e-9
0.054, -1.424e-9
0.052, -1.450e-9
0.050, -1.473e-9
0.048, -1.501e-9
0.046, -1.530e-9
0.044, -1.555e-9
0.042, -1.580e-9
0.040, -1.607e-9
0.038, -1.630e-9
0.036, -1.657e-9
0.034, -1.684e-9
0.032, -1.711e-9
0.030, -1.740e-9
0.028, -1.767e-9
0.026, -1.795e-9
0.024, -1.821e-9
0.022, -1.849e-9
0.020, -1.881e-9
0.018, -1.909e-9
0.016, -1.936e-9
0.014, -1.963e-9
0.012, -1.992e-9
0.010, -2.019e-9
0.008, -2.046e-9
0.006, -2.075e-9
0.004, -2.103e-9
0.002, -2.129e-9
-0.000, -2.149e-9
-0.002, -2.176e-9
-0.004, -2.206e-9
-0.006, -2.233e-9
-0.008, -2.257e-9
-0.010, -2.278e-9
-0.012, -2.301e-9
-0.014, -2.323e-9
-0.016, -2.346e-9
-0.018, -2.371e-9
-0.020, -2.393e-9
-0.022, -2.415e-9
-0.024, -2.437e-9
-0.026, -2.459e-9
-0.028, -2.483e-9
-0.030, -2.507e-9
-0.032, -2.531e-9
-0.034, -2.557e-9
-0.036, -2.583e-9
-0.038, -2.613e-9
-0.040, -2.641e-9
-0.042, -2.674e-9
-0.044, -2.702e-9
-0.046, -2.736e-9
-0.048, -2.769e-9
-0.050, -2.788e-9
-0.052, -2.817e-9
-0.054, -2.832e-9
-0.056, -2.815e-9
-0.058, -2.818e-9
-0.060, -2.806e-9
-0.062, -2.801e-9
-0.064, -2.789e-9
-0.066, -2.767e-9
-0.068, -2.752e-9
-0.070, -2.747e-9
-0.072, -2.742e-9
-0.074, -2.741e-9
-0.076, -2.762e-9
-0.078, -2.753e-9
-0.080, -2.753e-9
-0.082, -2.760e-9
-0.084, -2.804e-9
-0.086, -2.771e-9
-0.088, -2.774e-9
-0.090, -2.782e-9
-0.092, -2.784e-9
-0.094, -2.789e-9
-0.096, -2.820e-9
-0.098, -2.798e-9
-0.100, -2.804e-9
-0.102, -2.806e-9
-0.104, -2.849e-9
-0.106, -2.837e-9
-0.108, -2.872e-9
-0.110, -2.833e-9
-0.112, -2.843e-9
-0.114, -2.846e-9
-0.116, -2.828e-9
-0.118, -2.832e-9
-0.120, -2.836e-9
-0.122, -2.838e-9
-0.124, -2.933e-9
-0.126, -2.904e-9
-0.128, -2.850e-9
-0.130, -2.967e-9
-0.132, -2.881e-9
-0.134, -2.860e-9
-0.136, -2.857e-9
-0.138, -2.861e-9
-0.140, -2.863e-9
-0.142, -2.881e-9
-0.144, -2.865e-9
-0.146, -2.886e-9
-0.148, -2.912e-9
-0.150, -2.875e-9
-0.152, -2.873e-9
-0.154, -2.915e-9
-0.156, -2.954e-9
-0.158, -2.878e-9
-0.160, -2.910e-9
-0.162, -2.896e-9
-0.164, -2.896e-9
-0.166, -2.884e-9
-0.168, -2.886e-9
-0.170, -2.890e-9
-0.172, -2.898e-9
-0.174, -2.917e-9
-0.176, -2.907e-9
-0.178, -2.900e-9
-0.180, -2.906e-9
-0.182, -2.898e-9
-0.184, -2.915e-9
-0.186, -2.903e-9
-0.188, -2.910e-9
-0.190, -2.978e-9
-0.192, -2.923e-9
-0.194, -2.928e-9
-0.196, -2.927e-9
-0.198, -2.935e-9
-0.200, -2.935e-9
-0.202, -2.930e-9
-0.204, -2.942e-9
-0.206, -2.972e-9
-0.208, -2.932e-9
-0.210, -2.946e-9
-0.212, -2.942e-9
-0.214, -2.960e-9
-0.216, -2.943e-9
-0.218, -2.959e-9
-0.220, -2.963e-9
-0.222, -2.962e-9
-0.224, -2.960e-9
-0.226, -2.971e-9
-0.228, -2.966e-9
-0.230, -2.971e-9
-0.232, -2.977e-9
-0.234, -2.977e-9
-0.236, -2.986e-9
-0.238, -2.989e-9
-0.240, -2.986e-9
-0.242, -3.020e-9
-0.244, -3.000e-9
-0.246, -2.998e-9
-0.248, -3.010e-9
-0.250, -3.000e-9
-0.252, -3.038e-9
-0.254, -3.011e-9
-0.256, -3.014e-9
-0.258, -3.016e-9
-0.260, -3.023e-9
-0.262, -3.033e-9
-0.264, -3.031e-9
-0.266, -3.052e-9
-0.268, -3.041e-9
-0.270, -3.048e-9
-0.272, -3.081e-9
-0.274, -3.056e-9
-0.276, -3.068e-9
-0.278, -3.070e-9
-0.280, -3.093e-9
-0.282, -3.089e-9
-0.284, -3.077e-9
-0.286, -3.103e-9
-0.288, -3.103e-9
-0.290, -3.102e-9
-0.292, -3.113e-9
-0.294, -3.101e-9
-0.296, -3.112e-9
-0.298, -3.112e-9
-0.300, -3.138e-9
-0.302, -3.123e-9
-0.304, -3.132e-9
-0.306, -3.133e-9
-0.308, -3.150e-9
-0.310, -3.148e-9
-0.312, -3.157e-9
-0.314, -3.166e-9
-0.316, -3.174e-9
-0.318, -3.168e-9
-0.320, -3.176e-9
-0.322, -3.194e-9
-0.324, -3.190e-9
-0.326, -3.206e-9
-0.328, -3.199e-9
-0.330, -3.207e-9
-0.332, -3.219e-9
-0.334, -3.218e-9
-0.336, -3.222e-9
-0.338, -3.230e-9
-0.340, -3.234e-9
-0.342, -3.241e-9
-0.344, -3.249e-9
-0.346, -3.252e-9
-0.348, -3.258e-9
-0.350, -3.264e-9
-0.352, -3.272e-9
-0.354, -3.284e-9
-0.356, -3.284e-9
-0.358, -3.310e-9
-0.360, -3.307e-9
-0.362, -3.302e-9
-0.364, -3.318e-9
-0.366, -3.319e-9
-0.368, -3.325e-9
-0.370, -3.336e-9
-0.372, -3.339e-9
-0.374, -3.350e-9
-0.376, -3.365e-9
-0.378, -3.361e-9
-0.380, -3.373e-9
-0.382, -3.374e-9
-0.384, -3.397e-9
-0.386, -3.395e-9
-0.388, -3.396e-9
-0.390, -3.404e-9
-0.392, -3.410e-9
-0.394, -3.416e-9
-0.396, -3.425e-9
-0.398, -3.437e-9
-0.400, -3.440e-9
-0.402, -3.448e-9
-0.404, -3.455e-9
-0.406, -3.463e-9
-0.408, -3.470e-9
-0.410, -3.481e-9
-0.412, -3.486e-9
-0.414, -3.490e-9
-0.416, -3.500e-9
-0.418, -3.503e-9
-0.420, -3.508e-9
-0.422, -3.515e-9
-0.424, -3.522e-9
-0.426, -3.530e-9
-0.428, -3.538e-9
-0.430, -3.546e-9
-0.432, -3.555e-9
-0.434, -3.561e-9
-0.436, -3.571e-9
-0.438, -3.578e-9
-0.440, -3.587e-9
-0.442, -3.595e-9
-0.444, -3.604e-9
-0.446, -3.613e-9
-0.448, -3.620e-9
-0.450, -3.629e-9
-0.452, -3.639e-9
-0.454, -3.656e-9
-0.456, -3.656e-9
-0.458, -3.665e-9
-0.460, -3.677e-9
-0.462, -3.686e-9
-0.464, -3.701e-9
-0.466, -3.710e-9
-0.468, -3.716e-9
-0.470, -3.725e-9
-0.472, -3.733e-9
-0.474, -3.740e-9
-0.476, -3.751e-9
-0.478, -3.759e-9
-0.480, -3.768e-9
-0.482, -3.777e-9
-0.484, -3.786e-9
-0.486, -3.795e-9
-0.488, -3.807e-9
-0.490, -3.814e-9
-0.492, -3.827e-9
-0.494, -3.836e-9
-0.496, -3.847e-9
-0.498, -3.859e-9
-0.499, -3.862e-9