File: Fig 4/Fig 3b CV surface light/CV_surface_light_4.csv
Sept. 26, 2024   14:50:19
Cyclic Voltammetry
File: c:\users\secm\desktop\data\lmxlm2\+12 2319-1\26-09-2024 - lamp inside cage\region 2\+12 2319-1 fto cv_cells_light_surface_20_4.csv
Data Source:  Experiment
Instrument Model:  CHI920C
Ref. Electrode:
Header:
Note:

Init E (V) = -0.5
High E (V) = 0.5
Low E (V) = -0.5
Init P/N = P
Scan Rate (V/s) = 0.05
Segment = 2
Sample Interval (V) = 0.001
Quiet Time (sec) = 10
Sensitivity (A/V) = 1e-7

Results:

Channel 1:
Segment 1:
Ep = 0.135V
ip = 2.435e-9A
Ah = 3.037e-9C

Segment 2:

Potential/V, Current/A

-0.500, -2.039e-9
-0.498, -1.874e-9
-0.496, -1.801e-9
-0.494, -1.743e-9
-0.492, -1.692e-9
-0.490, -1.649e-9
-0.488, -1.610e-9
-0.486, -1.577e-9
-0.484, -1.541e-9
-0.482, -1.507e-9
-0.480, -1.472e-9
-0.478, -1.441e-9
-0.476, -1.414e-9
-0.474, -1.385e-9
-0.472, -1.358e-9
-0.470, -1.332e-9
-0.468, -1.308e-9
-0.466, -1.285e-9
-0.464, -1.260e-9
-0.462, -1.235e-9
-0.460, -1.210e-9
-0.458, -1.188e-9
-0.456, -1.167e-9
-0.454, -1.145e-9
-0.452, -1.121e-9
-0.450, -1.101e-9
-0.448, -1.082e-9
-0.446, -1.063e-9
-0.444, -1.045e-9
-0.442, -1.024e-9
-0.440, -1.003e-9
-0.438, -9.825e-10
-0.436, -9.629e-10
-0.434, -9.452e-10
-0.432, -9.282e-10
-0.430, -9.098e-10
-0.428, -8.912e-10
-0.426, -8.758e-10
-0.424, -8.581e-10
-0.422, -8.428e-10
-0.420, -8.258e-10
-0.418, -8.109e-10
-0.416, -7.967e-10
-0.414, -7.789e-10
-0.412, -7.627e-10
-0.410, -7.444e-10
-0.408, -7.287e-10
-0.406, -7.138e-10
-0.404, -6.976e-10
-0.402, -6.807e-10
-0.400, -6.656e-10
-0.398, -6.497e-10
-0.396, -6.352e-10
-0.394, -6.205e-10
-0.392, -6.065e-10
-0.390, -5.917e-10
-0.388, -5.773e-10
-0.386, -5.628e-10
-0.384, -5.489e-10
-0.382, -5.339e-10
-0.380, -5.157e-10
-0.378, -5.006e-10
-0.376, -4.831e-10
-0.374, -4.694e-10
-0.372, -4.543e-10
-0.370, -4.423e-10
-0.368, -4.285e-10
-0.366, -4.150e-10
-0.364, -3.999e-10
-0.362, -3.858e-10
-0.360, -3.737e-10
-0.358, -3.604e-10
-0.356, -3.481e-10
-0.354, -3.350e-10
-0.352, -3.245e-10
-0.350, -3.109e-10
-0.348, -2.978e-10
-0.346, -2.829e-10
-0.344, -2.676e-10
-0.342, -2.535e-10
-0.340, -2.385e-10
-0.338, -2.270e-10
-0.336, -2.141e-10
-0.334, -2.002e-10
-0.332, -1.875e-10
-0.330, -1.753e-10
-0.328, -1.617e-10
-0.326, -1.494e-10
-0.324, -1.370e-10
-0.322, -1.255e-10
-0.320, -1.130e-10
-0.318, -1.010e-10
-0.316, -9.042e-11
-0.314, -7.795e-11
-0.312, -6.479e-11
-0.310, -5.416e-11
-0.308, -3.944e-11
-0.306, -2.258e-11
-0.304, -1.137e-11
-0.302, 2.379e-12
-0.300, 1.544e-11
-0.298, 2.704e-11
-0.296, 4.001e-11
-0.294, 4.995e-11
-0.292, 6.291e-11
-0.290, 7.529e-11
-0.288, 8.748e-11
-0.286, 9.957e-11
-0.284, 1.104e-10
-0.282, 1.205e-10
-0.280, 1.307e-10
-0.278, 1.402e-10
-0.276, 1.528e-10
-0.274, 1.624e-10
-0.272, 1.728e-10
-0.270, 1.848e-10
-0.268, 1.958e-10
-0.266, 2.104e-10
-0.264, 2.212e-10
-0.262, 2.335e-10
-0.260, 2.460e-10
-0.258, 2.575e-10
-0.256, 2.675e-10
-0.254, 2.788e-10
-0.252, 2.895e-10
-0.250, 3.014e-10
-0.248, 3.130e-10
-0.246, 3.237e-10
-0.244, 3.349e-10
-0.242, 3.455e-10
-0.240, 3.556e-10
-0.238, 3.658e-10
-0.236, 3.775e-10
-0.234, 3.875e-10
-0.232, 3.974e-10
-0.230, 4.067e-10
-0.228, 4.178e-10
-0.226, 4.290e-10
-0.224, 4.412e-10
-0.222, 4.532e-10
-0.220, 4.648e-10
-0.218, 4.793e-10
-0.216, 4.905e-10
-0.214, 5.000e-10
-0.212, 5.126e-10
-0.210, 5.231e-10
-0.208, 5.340e-10
-0.206, 5.457e-10
-0.204, 5.519e-10
-0.202, 5.647e-10
-0.200, 5.751e-10
-0.198, 5.865e-10
-0.196, 5.966e-10
-0.194, 6.073e-10
-0.192, 6.176e-10
-0.190, 6.271e-10
-0.188, 6.365e-10
-0.186, 6.475e-10
-0.184, 6.577e-10
-0.182, 6.664e-10
-0.180, 6.772e-10
-0.178, 6.875e-10
-0.176, 6.991e-10
-0.174, 7.080e-10
-0.172, 7.222e-10
-0.170, 7.316e-10
-0.168, 7.423e-10
-0.166, 7.511e-10
-0.164, 7.624e-10
-0.162, 7.718e-10
-0.160, 7.822e-10
-0.158, 7.929e-10
-0.156, 8.016e-10
-0.154, 8.119e-10
-0.152, 8.222e-10
-0.150, 8.327e-10
-0.148, 8.445e-10
-0.146, 8.560e-10
-0.144, 8.677e-10
-0.142, 8.776e-10
-0.140, 8.863e-10
-0.138, 8.961e-10
-0.136, 9.083e-10
-0.134, 9.191e-10
-0.132, 9.315e-10
-0.130, 9.425e-10
-0.128, 9.519e-10
-0.126, 9.632e-10
-0.124, 9.744e-10
-0.122, 9.850e-10
-0.120, 9.962e-10
-0.118, 1.006e-9
-0.116, 1.017e-9
-0.114, 1.027e-9
-0.112, 1.037e-9
-0.110, 1.047e-9
-0.108, 1.060e-9
-0.106, 1.071e-9
-0.104, 1.083e-9
-0.102, 1.101e-9
-0.100, 1.109e-9
-0.098, 1.119e-9
-0.096, 1.130e-9
-0.094, 1.141e-9
-0.092, 1.152e-9
-0.090, 1.163e-9
-0.088, 1.176e-9
-0.086, 1.187e-9
-0.084, 1.202e-9
-0.082, 1.215e-9
-0.080, 1.226e-9
-0.078, 1.240e-9
-0.076, 1.251e-9
-0.074, 1.264e-9
-0.072, 1.277e-9
-0.070, 1.292e-9
-0.068, 1.306e-9
-0.066, 1.320e-9
-0.064, 1.334e-9
-0.062, 1.347e-9
-0.060, 1.362e-9
-0.058, 1.377e-9
-0.056, 1.392e-9
-0.054, 1.407e-9
-0.052, 1.424e-9
-0.050, 1.437e-9
-0.048, 1.453e-9
-0.046, 1.469e-9
-0.044, 1.486e-9
-0.042, 1.501e-9
-0.040, 1.515e-9
-0.038, 1.530e-9
-0.036, 1.547e-9
-0.034, 1.563e-9
-0.032, 1.581e-9
-0.030, 1.598e-9
-0.028, 1.615e-9
-0.026, 1.632e-9
-0.024, 1.649e-9
-0.022, 1.668e-9
-0.020, 1.689e-9
-0.018, 1.709e-9
-0.016, 1.728e-9
-0.014, 1.746e-9
-0.012, 1.764e-9
-0.010, 1.783e-9
-0.008, 1.805e-9
-0.006, 1.827e-9
-0.004, 1.846e-9
-0.002, 1.869e-9
0.000, 1.885e-9
0.002, 1.912e-9
0.004, 1.935e-9
0.006, 1.958e-9
0.008, 1.979e-9
0.010, 2.001e-9
0.012, 2.024e-9
0.014, 2.048e-9
0.016, 2.074e-9
0.018, 2.095e-9
0.020, 2.120e-9
0.022, 2.146e-9
0.024, 2.174e-9
0.026, 2.200e-9
0.028, 2.226e-9
0.030, 2.254e-9
0.032, 2.281e-9
0.034, 2.310e-9
0.036, 2.340e-9
0.038, 2.371e-9
0.040, 2.401e-9
0.042, 2.430e-9
0.044, 2.460e-9
0.046, 2.494e-9
0.048, 2.529e-9
0.050, 2.561e-9
0.052, 2.593e-9
0.054, 2.629e-9
0.056, 2.668e-9
0.058, 2.709e-9
0.060, 2.750e-9
0.062, 2.789e-9
0.064, 2.827e-9
0.066, 2.867e-9
0.068, 2.909e-9
0.070, 2.953e-9
0.072, 2.999e-9
0.074, 3.044e-9
0.076, 3.089e-9
0.078, 3.138e-9
0.080, 3.192e-9
0.082, 3.241e-9
0.084, 3.296e-9
0.086, 3.346e-9
0.088, 3.403e-9
0.090, 3.455e-9
0.092, 3.512e-9
0.094, 3.566e-9
0.096, 3.626e-9
0.098, 3.688e-9
0.100, 3.749e-9
0.102, 3.809e-9
0.104, 3.875e-9
0.106, 3.940e-9
0.108, 4.013e-9
0.110, 4.080e-9
0.112, 4.155e-9
0.114, 4.226e-9
0.116, 4.292e-9
0.118, 4.364e-9
0.120, 4.440e-9
0.122, 4.517e-9
0.124, 4.601e-9
0.126, 4.673e-9
0.128, 4.730e-9
0.130, 4.773e-9
0.132, 4.807e-9
0.134, 4.831e-9
0.136, 4.834e-9
0.138, 4.814e-9
0.140, 4.767e-9
0.142, 4.693e-9
0.144, 4.610e-9
0.146, 4.521e-9
0.148, 4.442e-9
0.150, 4.372e-9
0.152, 4.310e-9
0.154, 4.262e-9
0.156, 4.225e-9
0.158, 4.189e-9
0.160, 4.160e-9
0.162, 4.130e-9
0.164, 4.107e-9
0.166, 4.093e-9
0.168, 4.076e-9
0.170, 4.066e-9
0.172, 4.064e-9
0.174, 4.057e-9
0.176, 4.053e-9
0.178, 4.051e-9
0.180, 4.051e-9
0.182, 4.052e-9
0.184, 4.054e-9
0.186, 4.058e-9
0.188, 4.061e-9
0.190, 4.065e-9
0.192, 4.071e-9
0.194, 4.077e-9
0.196, 4.085e-9
0.198, 4.093e-9
0.200, 4.102e-9
0.202, 4.110e-9
0.204, 4.122e-9
0.206, 4.124e-9
0.208, 4.135e-9
0.210, 4.149e-9
0.212, 4.159e-9
0.214, 4.170e-9
0.216, 4.183e-9
0.218, 4.192e-9
0.220, 4.203e-9
0.222, 4.216e-9
0.224, 4.228e-9
0.226, 4.239e-9
0.228, 4.251e-9
0.230, 4.262e-9
0.232, 4.274e-9
0.234, 4.284e-9
0.236, 4.293e-9
0.238, 4.305e-9
0.240, 4.317e-9
0.242, 4.326e-9
0.244, 4.339e-9
0.246, 4.351e-9
0.248, 4.366e-9
0.250, 4.379e-9
0.252, 4.391e-9
0.254, 4.405e-9
0.256, 4.414e-9
0.258, 4.426e-9
0.260, 4.439e-9
0.262, 4.456e-9
0.264, 4.465e-9
0.266, 4.478e-9
0.268, 4.492e-9
0.270, 4.504e-9
0.272, 4.517e-9
0.274, 4.529e-9
0.276, 4.543e-9
0.278, 4.554e-9
0.280, 4.568e-9
0.282, 4.578e-9
0.284, 4.595e-9
0.286, 4.608e-9
0.288, 4.620e-9
0.290, 4.634e-9
0.292, 4.644e-9
0.294, 4.658e-9
0.296, 4.670e-9
0.298, 4.683e-9
0.300, 4.695e-9
0.302, 4.710e-9
0.304, 4.721e-9
0.306, 4.731e-9
0.308, 4.755e-9
0.310, 4.760e-9
0.312, 4.771e-9
0.314, 4.782e-9
0.316, 4.795e-9
0.318, 4.805e-9
0.320, 4.819e-9
0.322, 4.830e-9
0.324, 4.843e-9
0.326, 4.857e-9
0.328, 4.867e-9
0.330, 4.879e-9
0.332, 4.890e-9
0.334, 4.899e-9
0.336, 4.910e-9
0.338, 4.923e-9
0.340, 4.935e-9
0.342, 4.947e-9
0.344, 4.958e-9
0.346, 4.967e-9
0.348, 4.976e-9
0.350, 4.989e-9
0.352, 5.001e-9
0.354, 5.013e-9
0.356, 5.021e-9
0.358, 5.031e-9
0.360, 5.040e-9
0.362, 5.048e-9
0.364, 5.059e-9
0.366, 5.069e-9
0.368, 5.079e-9
0.370, 5.090e-9
0.372, 5.098e-9
0.374, 5.109e-9
0.376, 5.119e-9
0.378, 5.129e-9
0.380, 5.138e-9
0.382, 5.145e-9
0.384, 5.153e-9
0.386, 5.163e-9
0.388, 5.171e-9
0.390, 5.179e-9
0.392, 5.187e-9
0.394, 5.194e-9
0.396, 5.207e-9
0.398, 5.210e-9
0.400, 5.218e-9
0.402, 5.224e-9
0.404, 5.234e-9
0.406, 5.242e-9
0.408, 5.251e-9
0.410, 5.240e-9
0.412, 5.258e-9
0.414, 5.266e-9
0.416, 5.275e-9
0.418, 5.282e-9
0.420, 5.292e-9
0.422, 5.298e-9
0.424, 5.305e-9
0.426, 5.313e-9
0.428, 5.322e-9
0.430, 5.332e-9
0.432, 5.340e-9
0.434, 5.346e-9
0.436, 5.352e-9
0.438, 5.362e-9
0.440, 5.369e-9
0.442, 5.376e-9
0.444, 5.384e-9
0.446, 5.391e-9
0.448, 5.399e-9
0.450, 5.405e-9
0.452, 5.414e-9
0.454, 5.422e-9
0.456, 5.429e-9
0.458, 5.437e-9
0.460, 5.446e-9
0.462, 5.453e-9
0.464, 5.464e-9
0.466, 5.472e-9
0.468, 5.480e-9
0.470, 5.490e-9
0.472, 5.495e-9
0.474, 5.504e-9
0.476, 5.514e-9
0.478, 5.523e-9
0.480, 5.531e-9
0.482, 5.541e-9
0.484, 5.549e-9
0.486, 5.560e-9
0.488, 5.570e-9
0.490, 5.581e-9
0.492, 5.593e-9
0.494, 5.603e-9
0.496, 5.613e-9
0.498, 5.623e-9
0.500, 5.537e-9
0.498, 4.941e-9
0.496, 4.669e-9
0.494, 4.464e-9
0.492, 4.300e-9
0.490, 4.162e-9
0.488, 4.037e-9
0.486, 3.931e-9
0.484, 3.833e-9
0.482, 3.746e-9
0.480, 3.658e-9
0.478, 3.580e-9
0.476, 3.512e-9
0.474, 3.444e-9
0.472, 3.379e-9
0.470, 3.319e-9
0.468, 3.263e-9
0.466, 3.207e-9
0.464, 3.152e-9
0.462, 3.098e-9
0.460, 3.055e-9
0.458, 3.006e-9
0.456, 2.961e-9
0.454, 2.917e-9
0.452, 2.872e-9
0.450, 2.833e-9
0.448, 2.793e-9
0.446, 2.755e-9
0.444, 2.715e-9
0.442, 2.674e-9
0.440, 2.633e-9
0.438, 2.598e-9
0.436, 2.563e-9
0.434, 2.528e-9
0.432, 2.495e-9
0.430, 2.461e-9
0.428, 2.426e-9
0.426, 2.393e-9
0.424, 2.361e-9
0.422, 2.330e-9
0.420, 2.296e-9
0.418, 2.264e-9
0.416, 2.233e-9
0.414, 2.203e-9
0.412, 2.171e-9
0.410, 2.143e-9
0.408, 2.115e-9
0.406, 2.086e-9
0.404, 2.057e-9
0.402, 2.028e-9
0.400, 2.000e-9
0.398, 1.971e-9
0.396, 1.942e-9
0.394, 1.912e-9
0.392, 1.885e-9
0.390, 1.856e-9
0.388, 1.828e-9
0.386, 1.799e-9
0.384, 1.774e-9
0.382, 1.746e-9
0.380, 1.719e-9
0.378, 1.694e-9
0.376, 1.665e-9
0.374, 1.639e-9
0.372, 1.615e-9
0.370, 1.591e-9
0.368, 1.565e-9
0.366, 1.539e-9
0.364, 1.514e-9
0.362, 1.490e-9
0.360, 1.467e-9
0.358, 1.445e-9
0.356, 1.417e-9
0.354, 1.391e-9
0.352, 1.367e-9
0.350, 1.342e-9
0.348, 1.319e-9
0.346, 1.295e-9
0.344, 1.273e-9
0.342, 1.251e-9
0.340, 1.227e-9
0.338, 1.202e-9
0.336, 1.181e-9
0.334, 1.156e-9
0.332, 1.134e-9
0.330, 1.114e-9
0.328, 1.094e-9
0.326, 1.074e-9
0.324, 1.051e-9
0.322, 1.031e-9
0.320, 1.012e-9
0.318, 9.927e-10
0.316, 9.721e-10
0.314, 9.506e-10
0.312, 9.288e-10
0.310, 9.098e-10
0.308, 8.895e-10
0.306, 8.636e-10
0.304, 8.457e-10
0.302, 8.270e-10
0.300, 8.063e-10
0.298, 7.882e-10
0.296, 7.693e-10
0.294, 7.527e-10
0.292, 7.341e-10
0.290, 7.141e-10
0.288, 6.960e-10
0.286, 6.773e-10
0.284, 6.595e-10
0.282, 6.422e-10
0.280, 6.241e-10
0.278, 6.058e-10
0.276, 5.883e-10
0.274, 5.713e-10
0.272, 5.551e-10
0.270, 5.371e-10
0.268, 5.211e-10
0.266, 5.031e-10
0.264, 4.853e-10
0.262, 4.659e-10
0.260, 4.445e-10
0.258, 4.247e-10
0.256, 4.099e-10
0.254, 3.945e-10
0.252, 3.791e-10
0.250, 3.645e-10
0.248, 3.495e-10
0.246, 3.324e-10
0.244, 3.164e-10
0.242, 3.019e-10
0.240, 2.875e-10
0.238, 2.721e-10
0.236, 2.559e-10
0.234, 2.403e-10
0.232, 2.238e-10
0.230, 2.082e-10
0.228, 1.894e-10
0.226, 1.744e-10
0.224, 1.596e-10
0.222, 1.478e-10
0.220, 1.350e-10
0.218, 1.201e-10
0.216, 1.057e-10
0.214, 9.079e-11
0.212, 7.520e-11
0.210, 6.097e-11
0.208, 4.683e-11
0.206, 3.250e-11
0.204, 2.100e-11
0.202, 4.913e-12
0.200, -1.156e-11
0.198, -2.999e-11
0.196, -4.724e-11
0.194, -6.196e-11
0.192, -7.522e-11
0.190, -8.925e-11
0.188, -1.039e-10
0.186, -1.187e-10
0.184, -1.324e-10
0.182, -1.470e-10
0.180, -1.634e-10
0.178, -1.766e-10
0.176, -1.907e-10
0.174, -2.063e-10
0.172, -2.216e-10
0.170, -2.367e-10
0.168, -2.523e-10
0.166, -2.687e-10
0.164, -2.869e-10
0.162, -3.030e-10
0.160, -3.174e-10
0.158, -3.309e-10
0.156, -3.442e-10
0.154, -3.584e-10
0.152, -3.742e-10
0.150, -3.896e-10
0.148, -4.079e-10
0.146, -4.223e-10
0.144, -4.389e-10
0.142, -4.536e-10
0.140, -4.678e-10
0.138, -4.849e-10
0.136, -5.028e-10
0.134, -5.235e-10
0.132, -5.400e-10
0.130, -5.576e-10
0.128, -5.716e-10
0.126, -5.870e-10
0.124, -6.031e-10
0.122, -6.210e-10
0.120, -6.357e-10
0.118, -6.515e-10
0.116, -6.698e-10
0.114, -6.865e-10
0.112, -7.005e-10
0.110, -7.181e-10
0.108, -7.372e-10
0.106, -7.553e-10
0.104, -7.740e-10
0.102, -7.975e-10
0.100, -8.095e-10
0.098, -8.252e-10
0.096, -8.397e-10
0.094, -8.564e-10
0.092, -8.728e-10
0.090, -8.912e-10
0.088, -9.092e-10
0.086, -9.265e-10
0.084, -9.426e-10
0.082, -9.611e-10
0.080, -9.777e-10
0.078, -1.001e-9
0.076, -1.018e-9
0.074, -1.037e-9
0.072, -1.056e-9
0.070, -1.073e-9
0.068, -1.090e-9
0.066, -1.108e-9
0.064, -1.125e-9
0.062, -1.143e-9
0.060, -1.161e-9
0.058, -1.180e-9
0.056, -1.199e-9
0.054, -1.216e-9
0.052, -1.234e-9
0.050, -1.254e-9
0.048, -1.273e-9
0.046, -1.292e-9
0.044, -1.310e-9
0.042, -1.326e-9
0.040, -1.343e-9
0.038, -1.361e-9
0.036, -1.382e-9
0.034, -1.398e-9
0.032, -1.415e-9
0.030, -1.432e-9
0.028, -1.449e-9
0.026, -1.469e-9
0.024, -1.488e-9
0.022, -1.506e-9
0.020, -1.525e-9
0.018, -1.542e-9
0.016, -1.560e-9
0.014, -1.577e-9
0.012, -1.593e-9
0.010, -1.610e-9
0.008, -1.626e-9
0.006, -1.643e-9
0.004, -1.658e-9
0.002, -1.673e-9
-0.000, -1.684e-9
-0.002, -1.702e-9
-0.004, -1.719e-9
-0.006, -1.738e-9
-0.008, -1.756e-9
-0.010, -1.772e-9
-0.012, -1.785e-9
-0.014, -1.800e-9
-0.016, -1.816e-9
-0.018, -1.831e-9
-0.020, -1.849e-9
-0.022, -1.864e-9
-0.024, -1.879e-9
-0.026, -1.890e-9
-0.028, -1.907e-9
-0.030, -1.920e-9
-0.032, -1.933e-9
-0.034, -1.949e-9
-0.036, -1.962e-9
-0.038, -1.976e-9
-0.040, -1.989e-9
-0.042, -2.002e-9
-0.044, -2.016e-9
-0.046, -2.028e-9
-0.048, -2.041e-9
-0.050, -2.053e-9
-0.052, -2.064e-9
-0.054, -2.076e-9
-0.056, -2.089e-9
-0.058, -2.102e-9
-0.060, -2.116e-9
-0.062, -2.126e-9
-0.064, -2.138e-9
-0.066, -2.149e-9
-0.068, -2.160e-9
-0.070, -2.171e-9
-0.072, -2.181e-9
-0.074, -2.191e-9
-0.076, -2.201e-9
-0.078, -2.213e-9
-0.080, -2.223e-9
-0.082, -2.235e-9
-0.084, -2.246e-9
-0.086, -2.255e-9
-0.088, -2.270e-9
-0.090, -2.277e-9
-0.092, -2.294e-9
-0.094, -2.291e-9
-0.096, -2.302e-9
-0.098, -2.310e-9
-0.100, -2.327e-9
-0.102, -2.333e-9
-0.104, -2.342e-9
-0.106, -2.350e-9
-0.108, -2.362e-9
-0.110, -2.371e-9
-0.112, -2.377e-9
-0.114, -2.385e-9
-0.116, -2.390e-9
-0.118, -2.399e-9
-0.120, -2.409e-9
-0.122, -2.415e-9
-0.124, -2.423e-9
-0.126, -2.429e-9
-0.128, -2.436e-9
-0.130, -2.445e-9
-0.132, -2.456e-9
-0.134, -2.460e-9
-0.136, -2.466e-9
-0.138, -2.473e-9
-0.140, -2.480e-9
-0.142, -2.488e-9
-0.144, -2.495e-9
-0.146, -2.501e-9
-0.148, -2.508e-9
-0.150, -2.518e-9
-0.152, -2.521e-9
-0.154, -2.526e-9
-0.156, -2.535e-9
-0.158, -2.540e-9
-0.160, -2.547e-9
-0.162, -2.554e-9
-0.164, -2.560e-9
-0.166, -2.570e-9
-0.168, -2.570e-9
-0.170, -2.578e-9
-0.172, -2.585e-9
-0.174, -2.593e-9
-0.176, -2.597e-9
-0.178, -2.603e-9
-0.180, -2.609e-9
-0.182, -2.615e-9
-0.184, -2.621e-9
-0.186, -2.627e-9
-0.188, -2.634e-9
-0.190, -2.641e-9
-0.192, -2.644e-9
-0.194, -2.651e-9
-0.196, -2.656e-9
-0.198, -2.663e-9
-0.200, -2.669e-9
-0.202, -2.674e-9
-0.204, -2.681e-9
-0.206, -2.684e-9
-0.208, -2.693e-9
-0.210, -2.699e-9
-0.212, -2.709e-9
-0.214, -2.715e-9
-0.216, -2.721e-9
-0.218, -2.727e-9
-0.220, -2.735e-9
-0.222, -2.742e-9
-0.224, -2.748e-9
-0.226, -2.753e-9
-0.228, -2.760e-9
-0.230, -2.766e-9
-0.232, -2.771e-9
-0.234, -2.777e-9
-0.236, -2.784e-9
-0.238, -2.792e-9
-0.240, -2.799e-9
-0.242, -2.805e-9
-0.244, -2.814e-9
-0.246, -2.823e-9
-0.248, -2.827e-9
-0.250, -2.833e-9
-0.252, -2.842e-9
-0.254, -2.847e-9
-0.256, -2.855e-9
-0.258, -2.861e-9
-0.260, -2.869e-9
-0.262, -2.876e-9
-0.264, -2.884e-9
-0.266, -2.890e-9
-0.268, -2.898e-9
-0.270, -2.906e-9
-0.272, -2.911e-9
-0.274, -2.919e-9
-0.276, -2.927e-9
-0.278, -2.935e-9
-0.280, -2.941e-9
-0.282, -2.945e-9
-0.284, -2.955e-9
-0.286, -2.962e-9
-0.288, -2.970e-9
-0.290, -2.980e-9
-0.292, -2.987e-9
-0.294, -2.997e-9
-0.296, -3.004e-9
-0.298, -3.010e-9
-0.300, -3.018e-9
-0.302, -3.026e-9
-0.304, -3.034e-9
-0.306, -3.041e-9
-0.308, -3.055e-9
-0.310, -3.059e-9
-0.312, -3.067e-9
-0.314, -3.074e-9
-0.316, -3.085e-9
-0.318, -3.092e-9
-0.320, -3.102e-9
-0.322, -3.110e-9
-0.324, -3.117e-9
-0.326, -3.125e-9
-0.328, -3.131e-9
-0.330, -3.140e-9
-0.332, -3.148e-9
-0.334, -3.155e-9
-0.336, -3.165e-9
-0.338, -3.173e-9
-0.340, -3.183e-9
-0.342, -3.190e-9
-0.344, -3.199e-9
-0.346, -3.207e-9
-0.348, -3.219e-9
-0.350, -3.227e-9
-0.352, -3.236e-9
-0.354, -3.244e-9
-0.356, -3.252e-9
-0.358, -3.260e-9
-0.360, -3.269e-9
-0.362, -3.278e-9
-0.364, -3.286e-9
-0.366, -3.294e-9
-0.368, -3.302e-9
-0.370, -3.312e-9
-0.372, -3.322e-9
-0.374, -3.333e-9
-0.376, -3.345e-9
-0.378, -3.353e-9
-0.380, -3.362e-9
-0.382, -3.371e-9
-0.384, -3.380e-9
-0.386, -3.389e-9
-0.388, -3.399e-9
-0.390, -3.408e-9
-0.392, -3.418e-9
-0.394, -3.426e-9
-0.396, -3.436e-9
-0.398, -3.443e-9
-0.400, -3.453e-9
-0.402, -3.463e-9
-0.404, -3.473e-9
-0.406, -3.482e-9
-0.408, -3.489e-9
-0.410, -3.498e-9
-0.412, -3.506e-9
-0.414, -3.514e-9
-0.416, -3.524e-9
-0.418, -3.534e-9
-0.420, -3.543e-9
-0.422, -3.552e-9
-0.424, -3.562e-9
-0.426, -3.571e-9
-0.428, -3.582e-9
-0.430, -3.593e-9
-0.432, -3.603e-9
-0.434, -3.615e-9
-0.436, -3.626e-9
-0.438, -3.636e-9
-0.440, -3.647e-9
-0.442, -3.659e-9
-0.444, -3.672e-9
-0.446, -3.683e-9
-0.448, -3.691e-9
-0.450, -3.704e-9
-0.452, -3.715e-9
-0.454, -3.726e-9
-0.456, -3.736e-9
-0.458, -3.745e-9
-0.460, -3.754e-9
-0.462, -3.763e-9
-0.464, -3.773e-9
-0.466, -3.785e-9
-0.468, -3.796e-9
-0.470, -3.807e-9
-0.472, -3.818e-9
-0.474, -3.828e-9
-0.476, -3.843e-9
-0.478, -3.854e-9
-0.480, -3.867e-9
-0.482, -3.879e-9
-0.484, -3.890e-9
-0.486, -3.903e-9
-0.488, -3.914e-9
-0.490, -3.925e-9
-0.492, -3.940e-9
-0.494, -3.951e-9
-0.496, -3.964e-9
-0.498, -3.976e-9
-0.499, -3.981e-9