File: Fig 4/Fig 3b CV surface light/CV_surface_light_2.csv
Sept. 26, 2024   14:48:05
Cyclic Voltammetry
File: c:\users\secm\desktop\data\lmxlm2\+12 2319-1\26-09-2024 - lamp inside cage\region 2\+12 2319-1 fto cv_cells_light_surface_20_2.csv
Data Source:  Experiment
Instrument Model:  CHI920C
Ref. Electrode:
Header:
Note:

Init E (V) = -0.5
High E (V) = 0.5
Low E (V) = -0.5
Init P/N = P
Scan Rate (V/s) = 0.05
Segment = 2
Sample Interval (V) = 0.001
Quiet Time (sec) = 10
Sensitivity (A/V) = 1e-7

Results:

Channel 1:
Segment 1:

Segment 2:

Potential/V, Current/A

-0.500, -2.504e-9
-0.498, -2.339e-9
-0.496, -2.262e-9
-0.494, -2.198e-9
-0.492, -2.147e-9
-0.490, -2.098e-9
-0.488, -2.055e-9
-0.486, -2.019e-9
-0.484, -1.979e-9
-0.482, -1.944e-9
-0.480, -1.911e-9
-0.478, -1.880e-9
-0.476, -1.846e-9
-0.474, -1.815e-9
-0.472, -1.789e-9
-0.470, -1.762e-9
-0.468, -1.732e-9
-0.466, -1.706e-9
-0.464, -1.681e-9
-0.462, -1.659e-9
-0.460, -1.638e-9
-0.458, -1.615e-9
-0.456, -1.592e-9
-0.454, -1.571e-9
-0.452, -1.549e-9
-0.450, -1.529e-9
-0.448, -1.507e-9
-0.446, -1.484e-9
-0.444, -1.461e-9
-0.442, -1.439e-9
-0.440, -1.420e-9
-0.438, -1.401e-9
-0.436, -1.381e-9
-0.434, -1.362e-9
-0.432, -1.345e-9
-0.430, -1.326e-9
-0.428, -1.308e-9
-0.426, -1.291e-9
-0.424, -1.274e-9
-0.422, -1.255e-9
-0.420, -1.235e-9
-0.418, -1.217e-9
-0.416, -1.199e-9
-0.414, -1.182e-9
-0.412, -1.166e-9
-0.410, -1.147e-9
-0.408, -1.131e-9
-0.406, -1.116e-9
-0.404, -1.100e-9
-0.402, -1.086e-9
-0.400, -1.070e-9
-0.398, -1.054e-9
-0.396, -1.039e-9
-0.394, -1.020e-9
-0.392, -1.003e-9
-0.390, -9.866e-10
-0.388, -9.680e-10
-0.386, -9.537e-10
-0.384, -9.390e-10
-0.382, -9.238e-10
-0.380, -9.097e-10
-0.378, -8.939e-10
-0.376, -8.811e-10
-0.374, -8.651e-10
-0.372, -8.514e-10
-0.370, -8.369e-10
-0.368, -8.231e-10
-0.366, -8.107e-10
-0.364, -7.986e-10
-0.362, -7.830e-10
-0.360, -7.680e-10
-0.358, -7.535e-10
-0.356, -7.373e-10
-0.354, -7.242e-10
-0.352, -7.114e-10
-0.350, -6.977e-10
-0.348, -6.855e-10
-0.346, -6.702e-10
-0.344, -6.555e-10
-0.342, -6.424e-10
-0.340, -6.287e-10
-0.338, -6.145e-10
-0.336, -6.019e-10
-0.334, -5.894e-10
-0.332, -5.777e-10
-0.330, -5.654e-10
-0.328, -5.533e-10
-0.326, -5.386e-10
-0.324, -5.241e-10
-0.322, -5.095e-10
-0.320, -4.946e-10
-0.318, -4.805e-10
-0.316, -4.699e-10
-0.314, -4.559e-10
-0.312, -4.419e-10
-0.310, -4.315e-10
-0.308, -4.197e-10
-0.306, -4.028e-10
-0.304, -3.902e-10
-0.302, -3.774e-10
-0.300, -3.658e-10
-0.298, -3.536e-10
-0.296, -3.420e-10
-0.294, -3.311e-10
-0.292, -3.209e-10
-0.290, -3.097e-10
-0.288, -2.975e-10
-0.286, -2.846e-10
-0.284, -2.685e-10
-0.282, -2.557e-10
-0.280, -2.436e-10
-0.278, -2.304e-10
-0.276, -2.156e-10
-0.274, -2.055e-10
-0.272, -1.940e-10
-0.270, -1.816e-10
-0.268, -1.695e-10
-0.266, -1.577e-10
-0.264, -1.461e-10
-0.262, -1.349e-10
-0.260, -1.243e-10
-0.258, -1.115e-10
-0.256, -1.007e-10
-0.254, -9.033e-11
-0.252, -7.795e-11
-0.250, -6.732e-11
-0.248, -5.562e-11
-0.246, -4.149e-11
-0.244, -2.921e-11
-0.242, -1.575e-11
-0.240, -3.373e-12
-0.238, 9.690e-12
-0.236, 2.246e-11
-0.234, 3.387e-11
-0.232, 4.478e-11
-0.230, 5.414e-11
-0.228, 6.681e-11
-0.226, 7.627e-11
-0.224, 9.040e-11
-0.222, 1.001e-10
-0.220, 1.139e-10
-0.218, 1.249e-10
-0.216, 1.356e-10
-0.214, 1.455e-10
-0.212, 1.560e-10
-0.210, 1.671e-10
-0.208, 1.774e-10
-0.206, 1.879e-10
-0.204, 1.968e-10
-0.202, 2.123e-10
-0.200, 2.243e-10
-0.198, 2.374e-10
-0.196, 2.496e-10
-0.194, 2.602e-10
-0.192, 2.693e-10
-0.190, 2.815e-10
-0.188, 2.947e-10
-0.186, 3.056e-10
-0.184, 3.171e-10
-0.182, 3.276e-10
-0.180, 3.385e-10
-0.178, 3.487e-10
-0.176, 3.581e-10
-0.174, 3.704e-10
-0.172, 3.831e-10
-0.170, 3.941e-10
-0.168, 4.045e-10
-0.166, 4.120e-10
-0.164, 4.253e-10
-0.162, 4.381e-10
-0.160, 4.493e-10
-0.158, 4.640e-10
-0.156, 4.780e-10
-0.154, 4.916e-10
-0.152, 5.045e-10
-0.150, 5.162e-10
-0.148, 5.277e-10
-0.146, 5.396e-10
-0.144, 5.509e-10
-0.142, 5.627e-10
-0.140, 5.747e-10
-0.138, 5.856e-10
-0.136, 5.964e-10
-0.134, 6.091e-10
-0.132, 6.219e-10
-0.130, 6.334e-10
-0.128, 6.436e-10
-0.126, 6.558e-10
-0.124, 6.675e-10
-0.122, 6.813e-10
-0.120, 6.940e-10
-0.118, 7.063e-10
-0.116, 7.193e-10
-0.114, 7.319e-10
-0.112, 7.428e-10
-0.110, 7.539e-10
-0.108, 7.673e-10
-0.106, 7.776e-10
-0.104, 7.904e-10
-0.102, 8.094e-10
-0.100, 8.189e-10
-0.098, 8.310e-10
-0.096, 8.456e-10
-0.094, 8.577e-10
-0.092, 8.727e-10
-0.090, 8.856e-10
-0.088, 8.982e-10
-0.086, 9.097e-10
-0.084, 9.237e-10
-0.082, 9.402e-10
-0.080, 9.528e-10
-0.078, 9.678e-10
-0.076, 9.813e-10
-0.074, 9.960e-10
-0.072, 1.007e-9
-0.070, 1.020e-9
-0.068, 1.034e-9
-0.066, 1.050e-9
-0.064, 1.065e-9
-0.062, 1.079e-9
-0.060, 1.095e-9
-0.058, 1.108e-9
-0.056, 1.122e-9
-0.054, 1.136e-9
-0.052, 1.151e-9
-0.050, 1.166e-9
-0.048, 1.182e-9
-0.046, 1.198e-9
-0.044, 1.217e-9
-0.042, 1.233e-9
-0.040, 1.249e-9
-0.038, 1.264e-9
-0.036, 1.280e-9
-0.034, 1.299e-9
-0.032, 1.317e-9
-0.030, 1.334e-9
-0.028, 1.352e-9
-0.026, 1.369e-9
-0.024, 1.386e-9
-0.022, 1.403e-9
-0.020, 1.423e-9
-0.018, 1.444e-9
-0.016, 1.463e-9
-0.014, 1.482e-9
-0.012, 1.500e-9
-0.010, 1.520e-9
-0.008, 1.538e-9
-0.006, 1.560e-9
-0.004, 1.581e-9
-0.002, 1.601e-9
0.000, 1.616e-9
0.002, 1.636e-9
0.004, 1.659e-9
0.006, 1.683e-9
0.008, 1.705e-9
0.010, 1.728e-9
0.012, 1.749e-9
0.014, 1.772e-9
0.016, 1.794e-9
0.018, 1.819e-9
0.020, 1.844e-9
0.022, 1.868e-9
0.024, 1.892e-9
0.026, 1.919e-9
0.028, 1.943e-9
0.030, 1.967e-9
0.032, 1.992e-9
0.034, 2.018e-9
0.036, 2.044e-9
0.038, 2.071e-9
0.040, 2.097e-9
0.042, 2.120e-9
0.044, 2.148e-9
0.046, 2.182e-9
0.048, 2.211e-9
0.050, 2.241e-9
0.052, 2.269e-9
0.054, 2.300e-9
0.056, 2.334e-9
0.058, 2.366e-9
0.060, 2.400e-9
0.062, 2.432e-9
0.064, 2.466e-9
0.066, 2.502e-9
0.068, 2.539e-9
0.070, 2.574e-9
0.072, 2.609e-9
0.074, 2.647e-9
0.076, 2.691e-9
0.078, 2.729e-9
0.080, 2.772e-9
0.082, 2.808e-9
0.084, 2.849e-9
0.086, 2.890e-9
0.088, 2.930e-9
0.090, 2.969e-9
0.092, 3.015e-9
0.094, 3.055e-9
0.096, 3.095e-9
0.098, 3.138e-9
0.100, 3.183e-9
0.102, 3.227e-9
0.104, 3.271e-9
0.106, 3.306e-9
0.108, 3.344e-9
0.110, 3.383e-9
0.112, 3.422e-9
0.114, 3.457e-9
0.116, 3.490e-9
0.118, 3.522e-9
0.120, 3.551e-9
0.122, 3.577e-9
0.124, 3.598e-9
0.126, 3.621e-9
0.128, 3.650e-9
0.130, 3.663e-9
0.132, 3.679e-9
0.134, 3.692e-9
0.136, 3.699e-9
0.138, 3.703e-9
0.140, 3.709e-9
0.142, 3.709e-9
0.144, 3.709e-9
0.146, 3.706e-9
0.148, 3.704e-9
0.150, 3.699e-9
0.152, 3.696e-9
0.154, 3.692e-9
0.156, 3.690e-9
0.158, 3.688e-9
0.160, 3.687e-9
0.162, 3.685e-9
0.164, 3.684e-9
0.166, 3.685e-9
0.168, 3.688e-9
0.170, 3.687e-9
0.172, 3.691e-9
0.174, 3.698e-9
0.176, 3.699e-9
0.178, 3.704e-9
0.180, 3.707e-9
0.182, 3.715e-9
0.184, 3.720e-9
0.186, 3.730e-9
0.188, 3.736e-9
0.190, 3.743e-9
0.192, 3.752e-9
0.194, 3.760e-9
0.196, 3.768e-9
0.198, 3.777e-9
0.200, 3.786e-9
0.202, 3.797e-9
0.204, 3.807e-9
0.206, 3.812e-9
0.208, 3.823e-9
0.210, 3.834e-9
0.212, 3.849e-9
0.214, 3.858e-9
0.216, 3.867e-9
0.218, 3.880e-9
0.220, 3.891e-9
0.222, 3.903e-9
0.224, 3.915e-9
0.226, 3.927e-9
0.228, 3.936e-9
0.230, 3.949e-9
0.232, 3.960e-9
0.234, 3.971e-9
0.236, 3.984e-9
0.238, 3.995e-9
0.240, 4.006e-9
0.242, 4.019e-9
0.244, 4.030e-9
0.246, 4.043e-9
0.248, 4.053e-9
0.250, 4.063e-9
0.252, 4.074e-9
0.254, 4.085e-9
0.256, 4.098e-9
0.258, 4.111e-9
0.260, 4.126e-9
0.262, 4.141e-9
0.264, 4.153e-9
0.266, 4.166e-9
0.268, 4.180e-9
0.270, 4.192e-9
0.272, 4.205e-9
0.274, 4.217e-9
0.276, 4.228e-9
0.278, 4.242e-9
0.280, 4.254e-9
0.282, 4.265e-9
0.284, 4.279e-9
0.286, 4.290e-9
0.288, 4.301e-9
0.290, 4.312e-9
0.292, 4.324e-9
0.294, 4.338e-9
0.296, 4.350e-9
0.298, 4.364e-9
0.300, 4.378e-9
0.302, 4.390e-9
0.304, 4.404e-9
0.306, 4.416e-9
0.308, 4.438e-9
0.310, 4.443e-9
0.312, 4.454e-9
0.314, 4.466e-9
0.316, 4.480e-9
0.318, 4.493e-9
0.320, 4.504e-9
0.322, 4.516e-9
0.324, 4.529e-9
0.326, 4.540e-9
0.328, 4.551e-9
0.330, 4.560e-9
0.332, 4.571e-9
0.334, 4.584e-9
0.336, 4.597e-9
0.338, 4.609e-9
0.340, 4.622e-9
0.342, 4.634e-9
0.344, 4.644e-9
0.346, 4.653e-9
0.348, 4.665e-9
0.350, 4.674e-9
0.352, 4.686e-9
0.354, 4.695e-9
0.356, 4.706e-9
0.358, 4.714e-9
0.360, 4.724e-9
0.362, 4.735e-9
0.364, 4.745e-9
0.366, 4.756e-9
0.368, 4.765e-9
0.370, 4.773e-9
0.372, 4.781e-9
0.374, 4.792e-9
0.376, 4.799e-9
0.378, 4.810e-9
0.380, 4.817e-9
0.382, 4.825e-9
0.384, 4.835e-9
0.386, 4.843e-9
0.388, 4.853e-9
0.390, 4.862e-9
0.392, 4.871e-9
0.394, 4.876e-9
0.396, 4.885e-9
0.398, 4.892e-9
0.400, 4.897e-9
0.402, 4.905e-9
0.404, 4.913e-9
0.406, 4.919e-9
0.408, 4.928e-9
0.410, 4.919e-9
0.412, 4.937e-9
0.414, 4.942e-9
0.416, 4.951e-9
0.418, 4.959e-9
0.420, 4.967e-9
0.422, 4.977e-9
0.424, 4.984e-9
0.426, 4.989e-9
0.428, 4.998e-9
0.430, 5.007e-9
0.432, 5.013e-9
0.434, 5.022e-9
0.436, 5.026e-9
0.438, 5.033e-9
0.440, 5.041e-9
0.442, 5.045e-9
0.444, 5.054e-9
0.446, 5.060e-9
0.448, 5.066e-9
0.450, 5.076e-9
0.452, 5.084e-9
0.454, 5.094e-9
0.456, 5.102e-9
0.458, 5.106e-9
0.460, 5.114e-9
0.462, 5.123e-9
0.464, 5.130e-9
0.466, 5.135e-9
0.468, 5.144e-9
0.470, 5.152e-9
0.472, 5.159e-9
0.474, 5.167e-9
0.476, 5.176e-9
0.478, 5.185e-9
0.480, 5.193e-9
0.482, 5.201e-9
0.484, 5.211e-9
0.486, 5.218e-9
0.488, 5.226e-9
0.490, 5.235e-9
0.492, 5.245e-9
0.494, 5.255e-9
0.496, 5.264e-9
0.498, 5.271e-9
0.500, 5.194e-9
0.498, 4.634e-9
0.496, 4.370e-9
0.494, 4.180e-9
0.492, 4.020e-9
0.490, 3.885e-9
0.488, 3.769e-9
0.486, 3.664e-9
0.484, 3.564e-9
0.482, 3.479e-9
0.480, 3.397e-9
0.478, 3.320e-9
0.476, 3.253e-9
0.474, 3.185e-9
0.472, 3.117e-9
0.470, 3.062e-9
0.468, 3.006e-9
0.466, 2.952e-9
0.464, 2.902e-9
0.462, 2.852e-9
0.460, 2.805e-9
0.458, 2.760e-9
0.456, 2.714e-9
0.454, 2.668e-9
0.452, 2.623e-9
0.450, 2.584e-9
0.448, 2.547e-9
0.446, 2.506e-9
0.444, 2.469e-9
0.442, 2.432e-9
0.440, 2.396e-9
0.438, 2.360e-9
0.436, 2.324e-9
0.434, 2.288e-9
0.432, 2.254e-9
0.430, 2.223e-9
0.428, 2.189e-9
0.426, 2.156e-9
0.424, 2.123e-9
0.422, 2.096e-9
0.420, 2.064e-9
0.418, 2.033e-9
0.416, 2.004e-9
0.414, 1.974e-9
0.412, 1.945e-9
0.410, 1.919e-9
0.408, 1.893e-9
0.406, 1.861e-9
0.404, 1.829e-9
0.402, 1.799e-9
0.400, 1.773e-9
0.398, 1.745e-9
0.396, 1.718e-9
0.394, 1.689e-9
0.392, 1.660e-9
0.390, 1.633e-9
0.388, 1.607e-9
0.386, 1.583e-9
0.384, 1.558e-9
0.382, 1.531e-9
0.380, 1.507e-9
0.378, 1.483e-9
0.376, 1.458e-9
0.374, 1.433e-9
0.372, 1.407e-9
0.370, 1.385e-9
0.368, 1.359e-9
0.366, 1.334e-9
0.364, 1.308e-9
0.362, 1.285e-9
0.360, 1.261e-9
0.358, 1.243e-9
0.356, 1.218e-9
0.354, 1.195e-9
0.352, 1.168e-9
0.350, 1.147e-9
0.348, 1.126e-9
0.346, 1.105e-9
0.344, 1.084e-9
0.342, 1.064e-9
0.340, 1.040e-9
0.338, 1.020e-9
0.336, 9.997e-10
0.334, 9.805e-10
0.332, 9.608e-10
0.330, 9.407e-10
0.328, 9.168e-10
0.326, 8.949e-10
0.324, 8.760e-10
0.322, 8.565e-10
0.320, 8.357e-10
0.318, 8.158e-10
0.316, 7.981e-10
0.314, 7.792e-10
0.312, 7.610e-10
0.310, 7.424e-10
0.308, 7.213e-10
0.306, 6.986e-10
0.304, 6.810e-10
0.302, 6.656e-10
0.300, 6.471e-10
0.298, 6.319e-10
0.296, 6.137e-10
0.294, 5.981e-10
0.292, 5.781e-10
0.290, 5.628e-10
0.288, 5.459e-10
0.286, 5.281e-10
0.284, 5.111e-10
0.282, 4.930e-10
0.280, 4.753e-10
0.278, 4.567e-10
0.276, 4.361e-10
0.274, 4.182e-10
0.272, 4.032e-10
0.270, 3.877e-10
0.268, 3.737e-10
0.266, 3.596e-10
0.264, 3.442e-10
0.262, 3.288e-10
0.260, 3.141e-10
0.258, 2.977e-10
0.256, 2.824e-10
0.254, 2.680e-10
0.252, 2.541e-10
0.250, 2.382e-10
0.248, 2.198e-10
0.246, 2.060e-10
0.244, 1.892e-10
0.242, 1.741e-10
0.240, 1.608e-10
0.238, 1.482e-10
0.236, 1.349e-10
0.234, 1.209e-10
0.232, 1.078e-10
0.230, 9.372e-11
0.228, 7.793e-11
0.226, 6.408e-11
0.224, 4.985e-11
0.222, 3.455e-11
0.220, 2.110e-11
0.218, 5.498e-12
0.216, -8.637e-12
0.214, -2.394e-11
0.212, -4.217e-11
0.210, -5.728e-11
0.208, -7.064e-11
0.206, -8.467e-11
0.204, -9.608e-11
0.202, -1.126e-10
0.200, -1.270e-10
0.198, -1.409e-10
0.196, -1.547e-10
0.194, -1.691e-10
0.192, -1.821e-10
0.190, -1.965e-10
0.188, -2.120e-10
0.186, -2.271e-10
0.184, -2.425e-10
0.182, -2.554e-10
0.180, -2.717e-10
0.178, -2.869e-10
0.176, -3.021e-10
0.174, -3.178e-10
0.172, -3.313e-10
0.170, -3.472e-10
0.168, -3.590e-10
0.166, -3.749e-10
0.164, -3.904e-10
0.162, -4.042e-10
0.160, -4.186e-10
0.158, -4.343e-10
0.156, -4.504e-10
0.154, -4.657e-10
0.152, -4.809e-10
0.150, -4.969e-10
0.148, -5.163e-10
0.146, -5.326e-10
0.144, -5.487e-10
0.142, -5.658e-10
0.140, -5.799e-10
0.138, -5.950e-10
0.136, -6.113e-10
0.134, -6.280e-10
0.132, -6.439e-10
0.130, -6.584e-10
0.128, -6.749e-10
0.126, -6.911e-10
0.124, -7.058e-10
0.122, -7.228e-10
0.120, -7.412e-10
0.118, -7.589e-10
0.116, -7.765e-10
0.114, -7.927e-10
0.112, -8.070e-10
0.110, -8.223e-10
0.108, -8.377e-10
0.106, -8.543e-10
0.104, -8.728e-10
0.102, -8.954e-10
0.100, -9.089e-10
0.098, -9.256e-10
0.096, -9.404e-10
0.094, -9.572e-10
0.092, -9.744e-10
0.090, -9.937e-10
0.088, -1.014e-9
0.086, -1.031e-9
0.084, -1.051e-9
0.082, -1.069e-9
0.080, -1.084e-9
0.078, -1.102e-9
0.076, -1.119e-9
0.074, -1.136e-9
0.072, -1.154e-9
0.070, -1.171e-9
0.068, -1.187e-9
0.066, -1.204e-9
0.064, -1.223e-9
0.062, -1.241e-9
0.060, -1.261e-9
0.058, -1.279e-9
0.056, -1.297e-9
0.054, -1.312e-9
0.052, -1.330e-9
0.050, -1.345e-9
0.048, -1.362e-9
0.046, -1.381e-9
0.044, -1.396e-9
0.042, -1.413e-9
0.040, -1.430e-9
0.038, -1.447e-9
0.036, -1.467e-9
0.034, -1.484e-9
0.032, -1.504e-9
0.030, -1.521e-9
0.028, -1.538e-9
0.026, -1.554e-9
0.024, -1.570e-9
0.022, -1.586e-9
0.020, -1.603e-9
0.018, -1.618e-9
0.016, -1.633e-9
0.014, -1.648e-9
0.012, -1.664e-9
0.010, -1.680e-9
0.008, -1.696e-9
0.006, -1.713e-9
0.004, -1.729e-9
0.002, -1.746e-9
-0.000, -1.756e-9
-0.002, -1.774e-9
-0.004, -1.791e-9
-0.006, -1.805e-9
-0.008, -1.819e-9
-0.010, -1.835e-9
-0.012, -1.853e-9
-0.014, -1.867e-9
-0.016, -1.883e-9
-0.018, -1.898e-9
-0.020, -1.914e-9
-0.022, -1.929e-9
-0.024, -1.943e-9
-0.026, -1.956e-9
-0.028, -1.971e-9
-0.030, -1.986e-9
-0.032, -2.001e-9
-0.034, -2.015e-9
-0.036, -2.030e-9
-0.038, -2.043e-9
-0.040, -2.056e-9
-0.042, -2.069e-9
-0.044, -2.083e-9
-0.046, -2.098e-9
-0.048, -2.111e-9
-0.050, -2.125e-9
-0.052, -2.136e-9
-0.054, -2.149e-9
-0.056, -2.161e-9
-0.058, -2.175e-9
-0.060, -2.188e-9
-0.062, -2.200e-9
-0.064, -2.211e-9
-0.066, -2.225e-9
-0.068, -2.239e-9
-0.070, -2.250e-9
-0.072, -2.264e-9
-0.074, -2.273e-9
-0.076, -2.285e-9
-0.078, -2.295e-9
-0.080, -2.305e-9
-0.082, -2.318e-9
-0.084, -2.330e-9
-0.086, -2.342e-9
-0.088, -2.353e-9
-0.090, -2.363e-9
-0.092, -2.374e-9
-0.094, -2.383e-9
-0.096, -2.394e-9
-0.098, -2.405e-9
-0.100, -2.415e-9
-0.102, -2.427e-9
-0.104, -2.438e-9
-0.106, -2.445e-9
-0.108, -2.458e-9
-0.110, -2.468e-9
-0.112, -2.476e-9
-0.114, -2.487e-9
-0.116, -2.496e-9
-0.118, -2.506e-9
-0.120, -2.514e-9
-0.122, -2.522e-9
-0.124, -2.532e-9
-0.126, -2.540e-9
-0.128, -2.548e-9
-0.130, -2.557e-9
-0.132, -2.567e-9
-0.134, -2.577e-9
-0.136, -2.584e-9
-0.138, -2.592e-9
-0.140, -2.600e-9
-0.142, -2.607e-9
-0.144, -2.614e-9
-0.146, -2.622e-9
-0.148, -2.632e-9
-0.150, -2.639e-9
-0.152, -2.645e-9
-0.154, -2.652e-9
-0.156, -2.659e-9
-0.158, -2.667e-9
-0.160, -2.675e-9
-0.162, -2.681e-9
-0.164, -2.688e-9
-0.166, -2.696e-9
-0.168, -2.704e-9
-0.170, -2.711e-9
-0.172, -2.721e-9
-0.174, -2.727e-9
-0.176, -2.735e-9
-0.178, -2.744e-9
-0.180, -2.748e-9
-0.182, -2.756e-9
-0.184, -2.761e-9
-0.186, -2.768e-9
-0.188, -2.775e-9
-0.190, -2.781e-9
-0.192, -2.786e-9
-0.194, -2.794e-9
-0.196, -2.800e-9
-0.198, -2.809e-9
-0.200, -2.816e-9
-0.202, -2.821e-9
-0.204, -2.829e-9
-0.206, -2.835e-9
-0.208, -2.843e-9
-0.210, -2.850e-9
-0.212, -2.857e-9
-0.214, -2.865e-9
-0.216, -2.873e-9
-0.218, -2.877e-9
-0.220, -2.884e-9
-0.222, -2.893e-9
-0.224, -2.899e-9
-0.226, -2.904e-9
-0.228, -2.911e-9
-0.230, -2.918e-9
-0.232, -2.924e-9
-0.234, -2.931e-9
-0.236, -2.940e-9
-0.238, -2.948e-9
-0.240, -2.954e-9
-0.242, -2.961e-9
-0.244, -2.970e-9
-0.246, -2.979e-9
-0.248, -2.984e-9
-0.250, -2.992e-9
-0.252, -3.000e-9
-0.254, -3.006e-9
-0.256, -3.012e-9
-0.258, -3.019e-9
-0.260, -3.028e-9
-0.262, -3.036e-9
-0.264, -3.044e-9
-0.266, -3.052e-9
-0.268, -3.060e-9
-0.270, -3.065e-9
-0.272, -3.074e-9
-0.274, -3.082e-9
-0.276, -3.089e-9
-0.278, -3.096e-9
-0.280, -3.104e-9
-0.282, -3.113e-9
-0.284, -3.121e-9
-0.286, -3.128e-9
-0.288, -3.135e-9
-0.290, -3.144e-9
-0.292, -3.150e-9
-0.294, -3.159e-9
-0.296, -3.167e-9
-0.298, -3.174e-9
-0.300, -3.185e-9
-0.302, -3.193e-9
-0.304, -3.201e-9
-0.306, -3.210e-9
-0.308, -3.227e-9
-0.310, -3.232e-9
-0.312, -3.239e-9
-0.314, -3.246e-9
-0.316, -3.254e-9
-0.318, -3.262e-9
-0.320, -3.269e-9
-0.322, -3.277e-9
-0.324, -3.286e-9
-0.326, -3.296e-9
-0.328, -3.305e-9
-0.330, -3.313e-9
-0.332, -3.325e-9
-0.334, -3.334e-9
-0.336, -3.343e-9
-0.338, -3.353e-9
-0.340, -3.359e-9
-0.342, -3.369e-9
-0.344, -3.379e-9
-0.346, -3.386e-9
-0.348, -3.397e-9
-0.350, -3.406e-9
-0.352, -3.415e-9
-0.354, -3.425e-9
-0.356, -3.434e-9
-0.358, -3.444e-9
-0.360, -3.455e-9
-0.362, -3.462e-9
-0.364, -3.473e-9
-0.366, -3.481e-9
-0.368, -3.488e-9
-0.370, -3.497e-9
-0.372, -3.505e-9
-0.374, -3.513e-9
-0.376, -3.524e-9
-0.378, -3.533e-9
-0.380, -3.541e-9
-0.382, -3.551e-9
-0.384, -3.561e-9
-0.386, -3.571e-9
-0.388, -3.580e-9
-0.390, -3.591e-9
-0.392, -3.604e-9
-0.394, -3.614e-9
-0.396, -3.625e-9
-0.398, -3.635e-9
-0.400, -3.647e-9
-0.402, -3.657e-9
-0.404, -3.668e-9
-0.406, -3.679e-9
-0.408, -3.692e-9
-0.410, -3.705e-9
-0.412, -3.716e-9
-0.414, -3.728e-9
-0.416, -3.737e-9
-0.418, -3.746e-9
-0.420, -3.753e-9
-0.422, -3.764e-9
-0.424, -3.774e-9
-0.426, -3.785e-9
-0.428, -3.796e-9
-0.430, -3.808e-9
-0.432, -3.819e-9
-0.434, -3.831e-9
-0.436, -3.842e-9
-0.438, -3.853e-9
-0.440, -3.865e-9
-0.442, -3.878e-9
-0.444, -3.888e-9
-0.446, -3.901e-9
-0.448, -3.912e-9
-0.450, -3.924e-9
-0.452, -3.937e-9
-0.454, -3.951e-9
-0.456, -3.962e-9
-0.458, -3.974e-9
-0.460, -3.987e-9
-0.462, -3.999e-9
-0.464, -4.008e-9
-0.466, -4.020e-9
-0.468, -4.033e-9
-0.470, -4.047e-9
-0.472, -4.058e-9
-0.474, -4.073e-9
-0.476, -4.086e-9
-0.478, -4.099e-9
-0.480, -4.114e-9
-0.482, -4.127e-9
-0.484, -4.140e-9
-0.486, -4.156e-9
-0.488, -4.168e-9
-0.490, -4.183e-9
-0.492, -4.197e-9
-0.494, -4.210e-9
-0.496, -4.223e-9
-0.498, -4.236e-9
-0.499, -4.242e-9