File: Supplementary Fig 4/Fig S4f Surface CV no cells/CV SURFACE (incubation) (3).txt
Mar. 6, 2025   16:07:37
Cyclic Voltammetry
File: cv surface (incubation) (3).bin
Data Source:  Experiment
Instrument Model:  CHI920C
Ref. Electrode:
Header:
Note:

Init E (V) = -0.5
High E (V) = 0.5
Low E (V) = -0.5
Init P/N = P
Scan Rate (V/s) = 0.05
Segment = 2
Sample Interval (V) = 0.001
Quiet Time (sec) = 10
Sensitivity (A/V) = 1e-7

Results:

Channel 1:
Segment 1:

Segment 2:

Potential/V, Current/A

-0.500, -5.136e-9
-0.498, -5.030e-9
-0.496, -4.960e-9
-0.494, -4.889e-9
-0.492, -4.826e-9
-0.490, -4.764e-9
-0.488, -4.711e-9
-0.486, -4.655e-9
-0.484, -4.595e-9
-0.482, -4.538e-9
-0.480, -4.487e-9
-0.478, -4.439e-9
-0.476, -4.380e-9
-0.474, -4.337e-9
-0.472, -4.284e-9
-0.470, -4.244e-9
-0.468, -4.194e-9
-0.466, -4.147e-9
-0.464, -4.094e-9
-0.462, -4.049e-9
-0.460, -4.003e-9
-0.458, -3.961e-9
-0.456, -3.913e-9
-0.454, -3.869e-9
-0.452, -3.824e-9
-0.450, -3.779e-9
-0.448, -3.742e-9
-0.446, -3.701e-9
-0.444, -3.654e-9
-0.442, -3.613e-9
-0.440, -3.568e-9
-0.438, -3.528e-9
-0.436, -3.490e-9
-0.434, -3.456e-9
-0.432, -3.413e-9
-0.430, -3.377e-9
-0.428, -3.333e-9
-0.426, -3.291e-9
-0.424, -3.255e-9
-0.422, -3.215e-9
-0.420, -3.176e-9
-0.418, -3.137e-9
-0.416, -3.102e-9
-0.414, -3.061e-9
-0.412, -3.024e-9
-0.410, -2.988e-9
-0.408, -2.950e-9
-0.406, -2.916e-9
-0.404, -2.878e-9
-0.402, -2.845e-9
-0.400, -2.804e-9
-0.398, -2.773e-9
-0.396, -2.737e-9
-0.394, -2.702e-9
-0.392, -2.666e-9
-0.390, -2.635e-9
-0.388, -2.600e-9
-0.386, -2.568e-9
-0.384, -2.535e-9
-0.382, -2.503e-9
-0.380, -2.469e-9
-0.378, -2.435e-9
-0.376, -2.403e-9
-0.374, -2.371e-9
-0.372, -2.340e-9
-0.370, -2.306e-9
-0.368, -2.278e-9
-0.366, -2.248e-9
-0.364, -2.216e-9
-0.362, -2.183e-9
-0.360, -2.153e-9
-0.358, -2.126e-9
-0.356, -2.093e-9
-0.354, -2.067e-9
-0.352, -2.035e-9
-0.350, -2.009e-9
-0.348, -1.974e-9
-0.346, -1.950e-9
-0.344, -1.919e-9
-0.342, -1.898e-9
-0.340, -1.864e-9
-0.338, -1.839e-9
-0.336, -1.810e-9
-0.334, -1.788e-9
-0.332, -1.762e-9
-0.330, -1.734e-9
-0.328, -1.707e-9
-0.326, -1.681e-9
-0.324, -1.658e-9
-0.322, -1.633e-9
-0.320, -1.611e-9
-0.318, -1.585e-9
-0.316, -1.565e-9
-0.314, -1.540e-9
-0.312, -1.518e-9
-0.310, -1.488e-9
-0.308, -1.466e-9
-0.306, -1.435e-9
-0.304, -1.419e-9
-0.302, -1.391e-9
-0.300, -1.373e-9
-0.298, -1.345e-9
-0.296, -1.330e-9
-0.294, -1.306e-9
-0.292, -1.289e-9
-0.290, -1.261e-9
-0.288, -1.241e-9
-0.286, -1.214e-9
-0.284, -1.196e-9
-0.282, -1.174e-9
-0.280, -1.156e-9
-0.278, -1.133e-9
-0.276, -1.115e-9
-0.274, -1.093e-9
-0.272, -1.077e-9
-0.270, -1.057e-9
-0.268, -1.039e-9
-0.266, -1.017e-9
-0.264, -9.962e-10
-0.262, -9.770e-10
-0.260, -9.565e-10
-0.258, -9.400e-10
-0.256, -9.200e-10
-0.254, -9.043e-10
-0.252, -8.829e-10
-0.250, -8.686e-10
-0.248, -8.477e-10
-0.246, -8.343e-10
-0.244, -8.169e-10
-0.242, -8.011e-10
-0.240, -7.822e-10
-0.238, -7.666e-10
-0.236, -7.504e-10
-0.234, -7.308e-10
-0.232, -7.180e-10
-0.230, -6.985e-10
-0.228, -6.831e-10
-0.226, -6.632e-10
-0.224, -6.511e-10
-0.222, -6.338e-10
-0.220, -6.199e-10
-0.218, -6.045e-10
-0.216, -5.872e-10
-0.214, -5.733e-10
-0.212, -5.572e-10
-0.210, -5.444e-10
-0.208, -5.220e-10
-0.206, -5.111e-10
-0.204, -4.881e-10
-0.202, -4.765e-10
-0.200, -4.550e-10
-0.198, -4.468e-10
-0.196, -4.277e-10
-0.194, -4.193e-10
-0.192, -4.034e-10
-0.190, -3.914e-10
-0.188, -3.751e-10
-0.186, -3.636e-10
-0.184, -3.480e-10
-0.182, -3.361e-10
-0.180, -3.245e-10
-0.178, -3.077e-10
-0.176, -2.982e-10
-0.174, -2.791e-10
-0.172, -2.679e-10
-0.170, -2.478e-10
-0.168, -2.396e-10
-0.166, -2.222e-10
-0.164, -2.110e-10
-0.162, -1.972e-10
-0.160, -1.859e-10
-0.158, -1.728e-10
-0.156, -1.593e-10
-0.154, -1.479e-10
-0.152, -1.334e-10
-0.150, -1.240e-10
-0.148, -1.068e-10
-0.146, -9.910e-11
-0.144, -8.526e-11
-0.142, -7.931e-11
-0.140, -6.206e-11
-0.138, -5.319e-11
-0.136, -3.593e-11
-0.134, -2.657e-11
-0.132, -9.709e-12
-0.130, 2.476e-12
-0.128, 1.525e-11
-0.126, 2.626e-11
-0.124, 3.581e-11
-0.122, 5.053e-11
-0.120, 5.814e-11
-0.118, 7.227e-11
-0.116, 8.056e-11
-0.114, 9.508e-11
-0.112, 1.028e-10
-0.110, 1.177e-10
-0.108, 1.250e-10
-0.106, 1.363e-10
-0.104, 1.451e-10
-0.102, 1.580e-10
-0.100, 1.658e-10
-0.098, 1.763e-10
-0.096, 1.854e-10
-0.094, 1.967e-10
-0.092, 2.073e-10
-0.090, 2.204e-10
-0.088, 2.290e-10
-0.086, 2.405e-10
-0.084, 2.501e-10
-0.082, 2.628e-10
-0.080, 2.721e-10
-0.078, 2.820e-10
-0.076, 2.926e-10
-0.074, 2.998e-10
-0.072, 3.104e-10
-0.070, 3.159e-10
-0.068, 3.311e-10
-0.066, 3.327e-10
-0.064, 3.509e-10
-0.062, 3.511e-10
-0.060, 3.677e-10
-0.058, 3.689e-10
-0.056, 3.868e-10
-0.054, 3.884e-10
-0.052, 4.022e-10
-0.050, 4.071e-10
-0.048, 4.178e-10
-0.046, 4.251e-10
-0.044, 4.379e-10
-0.042, 4.462e-10
-0.040, 4.561e-10
-0.038, 4.662e-10
-0.036, 4.768e-10
-0.034, 4.886e-10
-0.032, 4.950e-10
-0.030, 5.099e-10
-0.028, 5.128e-10
-0.026, 5.254e-10
-0.024, 5.284e-10
-0.022, 5.418e-10
-0.020, 5.448e-10
-0.018, 5.582e-10
-0.016, 5.612e-10
-0.014, 5.744e-10
-0.012, 5.779e-10
-0.010, 5.919e-10
-0.008, 5.954e-10
-0.006, 6.080e-10
-0.004, 6.108e-10
-0.002, 6.220e-10
0.000, 6.276e-10
0.002, 6.354e-10
0.004, 6.431e-10
0.006, 6.486e-10
0.008, 6.555e-10
0.010, 6.644e-10
0.012, 6.728e-10
0.014, 6.789e-10
0.016, 6.893e-10
0.018, 6.938e-10
0.020, 7.027e-10
0.022, 7.117e-10
0.024, 7.195e-10
0.026, 7.279e-10
0.028, 7.339e-10
0.030, 7.419e-10
0.032, 7.454e-10
0.034, 7.540e-10
0.036, 7.592e-10
0.038, 7.710e-10
0.040, 7.727e-10
0.042, 7.823e-10
0.044, 7.847e-10
0.046, 7.949e-10
0.048, 8.019e-10
0.050, 8.172e-10
0.052, 8.160e-10
0.054, 8.301e-10
0.056, 8.282e-10
0.058, 8.435e-10
0.060, 8.430e-10
0.062, 8.515e-10
0.064, 8.589e-10
0.066, 8.616e-10
0.068, 8.717e-10
0.070, 8.745e-10
0.072, 8.872e-10
0.074, 8.881e-10
0.076, 9.026e-10
0.078, 9.031e-10
0.080, 9.157e-10
0.082, 9.121e-10
0.084, 9.281e-10
0.086, 9.250e-10
0.088, 9.411e-10
0.090, 9.380e-10
0.092, 9.514e-10
0.094, 9.519e-10
0.096, 9.653e-10
0.098, 9.667e-10
0.100, 9.741e-10
0.102, 9.831e-10
0.104, 9.906e-10
0.106, 9.976e-10
0.108, 9.957e-10
0.110, 1.007e-9
0.112, 1.008e-9
0.114, 1.023e-9
0.116, 1.019e-9
0.118, 1.034e-9
0.120, 1.030e-9
0.122, 1.041e-9
0.124, 1.042e-9
0.126, 1.052e-9
0.128, 1.057e-9
0.130, 1.063e-9
0.132, 1.066e-9
0.134, 1.070e-9
0.136, 1.079e-9
0.138, 1.083e-9
0.140, 1.101e-9
0.142, 1.102e-9
0.144, 1.113e-9
0.146, 1.113e-9
0.148, 1.125e-9
0.150, 1.134e-9
0.152, 1.146e-9
0.154, 1.146e-9
0.156, 1.159e-9
0.158, 1.164e-9
0.160, 1.170e-9
0.162, 1.174e-9
0.164, 1.176e-9
0.166, 1.188e-9
0.168, 1.192e-9
0.170, 1.207e-9
0.172, 1.208e-9
0.174, 1.220e-9
0.176, 1.221e-9
0.178, 1.234e-9
0.180, 1.234e-9
0.182, 1.248e-9
0.184, 1.247e-9
0.186, 1.263e-9
0.188, 1.263e-9
0.190, 1.275e-9
0.192, 1.278e-9
0.194, 1.283e-9
0.196, 1.291e-9
0.198, 1.295e-9
0.200, 1.303e-9
0.202, 1.308e-9
0.204, 1.319e-9
0.206, 1.328e-9
0.208, 1.336e-9
0.210, 1.346e-9
0.212, 1.364e-9
0.214, 1.370e-9
0.216, 1.383e-9
0.218, 1.397e-9
0.220, 1.409e-9
0.222, 1.417e-9
0.224, 1.430e-9
0.226, 1.440e-9
0.228, 1.455e-9
0.230, 1.464e-9
0.232, 1.473e-9
0.234, 1.488e-9
0.236, 1.500e-9
0.238, 1.504e-9
0.240, 1.519e-9
0.242, 1.521e-9
0.244, 1.530e-9
0.246, 1.542e-9
0.248, 1.553e-9
0.250, 1.561e-9
0.252, 1.573e-9
0.254, 1.582e-9
0.256, 1.594e-9
0.258, 1.610e-9
0.260, 1.611e-9
0.262, 1.625e-9
0.264, 1.633e-9
0.266, 1.649e-9
0.268, 1.663e-9
0.270, 1.676e-9
0.272, 1.684e-9
0.274, 1.693e-9
0.276, 1.703e-9
0.278, 1.719e-9
0.280, 1.725e-9
0.282, 1.743e-9
0.284, 1.746e-9
0.286, 1.760e-9
0.288, 1.765e-9
0.290, 1.786e-9
0.292, 1.797e-9
0.294, 1.812e-9
0.296, 1.829e-9
0.298, 1.840e-9
0.300, 1.850e-9
0.302, 1.859e-9
0.304, 1.871e-9
0.306, 1.875e-9
0.308, 1.892e-9
0.310, 1.896e-9
0.312, 1.913e-9
0.314, 1.921e-9
0.316, 1.937e-9
0.318, 1.941e-9
0.320, 1.959e-9
0.322, 1.962e-9
0.324, 1.981e-9
0.326, 1.986e-9
0.328, 1.999e-9
0.330, 2.003e-9
0.332, 2.015e-9
0.334, 2.024e-9
0.336, 2.040e-9
0.338, 2.045e-9
0.340, 2.062e-9
0.342, 2.075e-9
0.344, 2.093e-9
0.346, 2.099e-9
0.348, 2.124e-9
0.350, 2.124e-9
0.352, 2.139e-9
0.354, 2.139e-9
0.356, 2.163e-9
0.358, 2.170e-9
0.360, 2.185e-9
0.362, 2.198e-9
0.364, 2.209e-9
0.366, 2.214e-9
0.368, 2.225e-9
0.370, 2.237e-9
0.372, 2.237e-9
0.374, 2.249e-9
0.376, 2.265e-9
0.378, 2.281e-9
0.380, 2.292e-9
0.382, 2.302e-9
0.384, 2.312e-9
0.386, 2.323e-9
0.388, 2.331e-9
0.390, 2.344e-9
0.392, 2.351e-9
0.394, 2.367e-9
0.396, 2.378e-9
0.398, 2.388e-9
0.400, 2.404e-9
0.402, 2.413e-9
0.404, 2.421e-9
0.406, 2.429e-9
0.408, 2.442e-9
0.410, 2.451e-9
0.412, 2.460e-9
0.414, 2.477e-9
0.416, 2.481e-9
0.418, 2.495e-9
0.420, 2.503e-9
0.422, 2.517e-9
0.424, 2.519e-9
0.426, 2.534e-9
0.428, 2.539e-9
0.430, 2.558e-9
0.432, 2.562e-9
0.434, 2.572e-9
0.436, 2.581e-9
0.438, 2.588e-9
0.440, 2.596e-9
0.442, 2.608e-9
0.444, 2.618e-9
0.446, 2.625e-9
0.448, 2.638e-9
0.450, 2.647e-9
0.452, 2.664e-9
0.454, 2.669e-9
0.456, 2.685e-9
0.458, 2.693e-9
0.460, 2.700e-9
0.462, 2.714e-9
0.464, 2.730e-9
0.466, 2.738e-9
0.468, 2.743e-9
0.470, 2.750e-9
0.472, 2.761e-9
0.474, 2.773e-9
0.476, 2.777e-9
0.478, 2.789e-9
0.480, 2.796e-9
0.482, 2.811e-9
0.484, 2.809e-9
0.486, 2.825e-9
0.488, 2.831e-9
0.490, 2.842e-9
0.492, 2.842e-9
0.494, 2.851e-9
0.496, 2.862e-9
0.498, 2.865e-9
0.500, 2.863e-9
0.498, 2.709e-9
0.496, 2.626e-9
0.494, 2.545e-9
0.492, 2.486e-9
0.490, 2.426e-9
0.488, 2.374e-9
0.486, 2.324e-9
0.484, 2.288e-9
0.482, 2.246e-9
0.480, 2.218e-9
0.478, 2.179e-9
0.476, 2.144e-9
0.474, 2.114e-9
0.472, 2.084e-9
0.470, 2.054e-9
0.468, 2.026e-9
0.466, 2.000e-9
0.464, 1.965e-9
0.462, 1.935e-9
0.460, 1.904e-9
0.458, 1.880e-9
0.456, 1.856e-9
0.454, 1.832e-9
0.452, 1.803e-9
0.450, 1.782e-9
0.448, 1.753e-9
0.446, 1.732e-9
0.444, 1.706e-9
0.442, 1.683e-9
0.440, 1.656e-9
0.438, 1.641e-9
0.436, 1.618e-9
0.434, 1.600e-9
0.432, 1.576e-9
0.430, 1.553e-9
0.428, 1.528e-9
0.426, 1.506e-9
0.424, 1.483e-9
0.422, 1.462e-9
0.420, 1.446e-9
0.418, 1.423e-9
0.416, 1.406e-9
0.414, 1.382e-9
0.412, 1.367e-9
0.410, 1.344e-9
0.408, 1.332e-9
0.406, 1.307e-9
0.404, 1.290e-9
0.402, 1.270e-9
0.400, 1.252e-9
0.398, 1.234e-9
0.396, 1.219e-9
0.394, 1.199e-9
0.392, 1.181e-9
0.390, 1.159e-9
0.388, 1.144e-9
0.386, 1.128e-9
0.384, 1.115e-9
0.382, 1.100e-9
0.380, 1.083e-9
0.378, 1.066e-9
0.376, 1.049e-9
0.374, 1.034e-9
0.372, 1.019e-9
0.370, 1.002e-9
0.368, 9.885e-10
0.366, 9.705e-10
0.364, 9.591e-10
0.362, 9.386e-10
0.360, 9.296e-10
0.358, 9.037e-10
0.356, 8.988e-10
0.354, 8.763e-10
0.352, 8.694e-10
0.350, 8.491e-10
0.348, 8.391e-10
0.346, 8.201e-10
0.344, 8.078e-10
0.342, 7.938e-10
0.340, 7.770e-10
0.338, 7.677e-10
0.336, 7.523e-10
0.334, 7.411e-10
0.332, 7.231e-10
0.330, 7.141e-10
0.328, 6.951e-10
0.326, 6.874e-10
0.324, 6.668e-10
0.322, 6.625e-10
0.320, 6.454e-10
0.318, 6.397e-10
0.316, 6.205e-10
0.314, 6.158e-10
0.312, 5.986e-10
0.310, 5.918e-10
0.308, 5.732e-10
0.306, 5.641e-10
0.304, 5.469e-10
0.302, 5.367e-10
0.300, 5.240e-10
0.298, 5.131e-10
0.296, 5.012e-10
0.294, 4.869e-10
0.292, 4.741e-10
0.290, 4.602e-10
0.288, 4.470e-10
0.286, 4.317e-10
0.284, 4.207e-10
0.282, 4.092e-10
0.280, 4.004e-10
0.278, 3.906e-10
0.276, 3.792e-10
0.274, 3.685e-10
0.272, 3.576e-10
0.270, 3.466e-10
0.268, 3.387e-10
0.266, 3.260e-10
0.264, 3.186e-10
0.262, 3.070e-10
0.260, 2.993e-10
0.258, 2.865e-10
0.256, 2.793e-10
0.254, 2.663e-10
0.252, 2.574e-10
0.250, 2.449e-10
0.248, 2.354e-10
0.246, 2.234e-10
0.244, 2.164e-10
0.242, 2.051e-10
0.240, 1.964e-10
0.238, 1.831e-10
0.236, 1.780e-10
0.234, 1.642e-10
0.232, 1.591e-10
0.230, 1.456e-10
0.228, 1.438e-10
0.226, 1.294e-10
0.224, 1.280e-10
0.222, 1.125e-10
0.220, 1.090e-10
0.218, 9.440e-11
0.216, 8.972e-11
0.214, 7.607e-11
0.212, 7.081e-11
0.210, 5.843e-11
0.208, 5.151e-11
0.206, 4.342e-11
0.204, 3.542e-11
0.202, 2.772e-11
0.200, 1.895e-11
0.198, 1.086e-11
0.196, 1.794e-12
0.194, -1.039e-11
0.192, -1.653e-11
0.190, -2.843e-11
0.188, -3.554e-11
0.186, -4.860e-11
0.184, -5.143e-11
0.182, -6.323e-11
0.180, -7.112e-11
0.178, -8.029e-11
0.176, -8.613e-11
0.174, -9.403e-11
0.172, -1.017e-10
0.170, -1.081e-10
0.168, -1.194e-10
0.166, -1.243e-10
0.164, -1.349e-10
0.162, -1.387e-10
0.160, -1.501e-10
0.158, -1.532e-10
0.156, -1.663e-10
0.154, -1.683e-10
0.152, -1.818e-10
0.150, -1.842e-10
0.148, -1.988e-10
0.146, -2.001e-10
0.144, -2.136e-10
0.142, -2.159e-10
0.140, -2.284e-10
0.138, -2.314e-10
0.136, -2.432e-10
0.134, -2.492e-10
0.132, -2.603e-10
0.130, -2.679e-10
0.128, -2.762e-10
0.126, -2.854e-10
0.124, -2.916e-10
0.122, -3.016e-10
0.120, -3.085e-10
0.118, -3.198e-10
0.116, -3.234e-10
0.114, -3.341e-10
0.112, -3.364e-10
0.110, -3.470e-10
0.108, -3.498e-10
0.106, -3.597e-10
0.104, -3.628e-10
0.102, -3.777e-10
0.100, -3.799e-10
0.098, -3.909e-10
0.096, -3.950e-10
0.094, -4.053e-10
0.092, -4.113e-10
0.090, -4.209e-10
0.088, -4.255e-10
0.086, -4.363e-10
0.084, -4.425e-10
0.082, -4.523e-10
0.080, -4.575e-10
0.078, -4.689e-10
0.076, -4.712e-10
0.074, -4.843e-10
0.072, -4.887e-10
0.070, -5.019e-10
0.068, -5.071e-10
0.066, -5.209e-10
0.064, -5.237e-10
0.062, -5.400e-10
0.060, -5.427e-10
0.058, -5.572e-10
0.056, -5.632e-10
0.054, -5.733e-10
0.052, -5.778e-10
0.050, -5.877e-10
0.048, -5.932e-10
0.046, -6.029e-10
0.044, -6.111e-10
0.042, -6.193e-10
0.040, -6.294e-10
0.038, -6.353e-10
0.036, -6.497e-10
0.034, -6.543e-10
0.032, -6.685e-10
0.030, -6.734e-10
0.028, -6.873e-10
0.026, -6.928e-10
0.024, -7.053e-10
0.022, -7.122e-10
0.020, -7.252e-10
0.018, -7.344e-10
0.016, -7.472e-10
0.014, -7.558e-10
0.012, -7.669e-10
0.010, -7.764e-10
0.008, -7.888e-10
0.006, -7.970e-10
0.004, -8.085e-10
0.002, -8.171e-10
-0.000, -8.273e-10
-0.002, -8.374e-10
-0.004, -8.503e-10
-0.006, -8.595e-10
-0.008, -8.727e-10
-0.010, -8.826e-10
-0.012, -8.951e-10
-0.014, -9.079e-10
-0.016, -9.207e-10
-0.018, -9.345e-10
-0.020, -9.427e-10
-0.022, -9.569e-10
-0.024, -9.669e-10
-0.026, -9.837e-10
-0.028, -9.955e-10
-0.030, -1.013e-9
-0.032, -1.025e-9
-0.034, -1.039e-9
-0.036, -1.052e-9
-0.038, -1.065e-9
-0.040, -1.078e-9
-0.042, -1.090e-9
-0.044, -1.105e-9
-0.046, -1.118e-9
-0.048, -1.133e-9
-0.050, -1.146e-9
-0.052, -1.159e-9
-0.054, -1.175e-9
-0.056, -1.188e-9
-0.058, -1.207e-9
-0.060, -1.221e-9
-0.062, -1.241e-9
-0.064, -1.256e-9
-0.066, -1.274e-9
-0.068, -1.289e-9
-0.070, -1.305e-9
-0.072, -1.319e-9
-0.074, -1.335e-9
-0.076, -1.349e-9
-0.078, -1.367e-9
-0.080, -1.384e-9
-0.082, -1.402e-9
-0.084, -1.420e-9
-0.086, -1.434e-9
-0.088, -1.456e-9
-0.090, -1.468e-9
-0.092, -1.494e-9
-0.094, -1.508e-9
-0.096, -1.533e-9
-0.098, -1.545e-9
-0.100, -1.568e-9
-0.102, -1.581e-9
-0.104, -1.604e-9
-0.106, -1.619e-9
-0.108, -1.639e-9
-0.110, -1.658e-9
-0.112, -1.674e-9
-0.114, -1.695e-9
-0.116, -1.712e-9
-0.118, -1.738e-9
-0.120, -1.755e-9
-0.122, -1.781e-9
-0.124, -1.793e-9
-0.126, -1.820e-9
-0.128, -1.830e-9
-0.130, -1.862e-9
-0.132, -1.874e-9
-0.134, -1.903e-9
-0.136, -1.915e-9
-0.138, -1.943e-9
-0.140, -1.958e-9
-0.142, -1.985e-9
-0.144, -2.007e-9
-0.146, -2.029e-9
-0.148, -2.048e-9
-0.150, -2.070e-9
-0.152, -2.095e-9
-0.154, -2.115e-9
-0.156, -2.140e-9
-0.158, -2.159e-9
-0.160, -2.181e-9
-0.162, -2.201e-9
-0.164, -2.226e-9
-0.166, -2.250e-9
-0.168, -2.271e-9
-0.170, -2.292e-9
-0.172, -2.313e-9
-0.174, -2.340e-9
-0.176, -2.361e-9
-0.178, -2.389e-9
-0.180, -2.405e-9
-0.182, -2.433e-9
-0.184, -2.451e-9
-0.186, -2.484e-9
-0.188, -2.503e-9
-0.190, -2.530e-9
-0.192, -2.549e-9
-0.194, -2.574e-9
-0.196, -2.594e-9
-0.198, -2.619e-9
-0.200, -2.643e-9
-0.202, -2.667e-9
-0.204, -2.691e-9
-0.206, -2.713e-9
-0.208, -2.740e-9
-0.210, -2.761e-9
-0.212, -2.782e-9
-0.214, -2.806e-9
-0.216, -2.831e-9
-0.218, -2.853e-9
-0.220, -2.878e-9
-0.222, -2.901e-9
-0.224, -2.923e-9
-0.226, -2.942e-9
-0.228, -2.970e-9
-0.230, -2.989e-9
-0.232, -3.016e-9
-0.234, -3.036e-9
-0.236, -3.065e-9
-0.238, -3.084e-9
-0.240, -3.111e-9
-0.242, -3.129e-9
-0.244, -3.155e-9
-0.246, -3.176e-9
-0.248, -3.204e-9
-0.250, -3.226e-9
-0.252, -3.250e-9
-0.254, -3.273e-9
-0.256, -3.298e-9
-0.258, -3.321e-9
-0.260, -3.348e-9
-0.262, -3.368e-9
-0.264, -3.400e-9
-0.266, -3.419e-9
-0.268, -3.452e-9
-0.270, -3.465e-9
-0.272, -3.495e-9
-0.274, -3.508e-9
-0.276, -3.540e-9
-0.278, -3.554e-9
-0.280, -3.587e-9
-0.282, -3.606e-9
-0.284, -3.637e-9
-0.286, -3.657e-9
-0.288, -3.691e-9
-0.290, -3.713e-9
-0.292, -3.737e-9
-0.294, -3.760e-9
-0.296, -3.779e-9
-0.298, -3.809e-9
-0.300, -3.830e-9
-0.302, -3.861e-9
-0.304, -3.878e-9
-0.306, -3.912e-9
-0.308, -3.931e-9
-0.310, -3.967e-9
-0.312, -3.980e-9
-0.314, -4.012e-9
-0.316, -4.030e-9
-0.318, -4.062e-9
-0.320, -4.079e-9
-0.322, -4.113e-9
-0.324, -4.132e-9
-0.326, -4.169e-9
-0.328, -4.187e-9
-0.330, -4.218e-9
-0.332, -4.236e-9
-0.334, -4.266e-9
-0.336, -4.283e-9
-0.338, -4.313e-9
-0.340, -4.337e-9
-0.342, -4.363e-9
-0.344, -4.385e-9
-0.346, -4.411e-9
-0.348, -4.440e-9
-0.350, -4.468e-9
-0.352, -4.493e-9
-0.354, -4.522e-9
-0.356, -4.552e-9
-0.358, -4.586e-9
-0.360, -4.615e-9
-0.362, -4.645e-9
-0.364, -4.684e-9
-0.366, -4.710e-9
-0.368, -4.741e-9
-0.370, -4.767e-9
-0.372, -4.806e-9
-0.374, -4.830e-9
-0.376, -4.868e-9
-0.378, -4.892e-9
-0.380, -4.928e-9
-0.382, -4.952e-9
-0.384, -4.986e-9
-0.386, -5.010e-9
-0.388, -5.040e-9
-0.390, -5.074e-9
-0.392, -5.106e-9
-0.394, -5.138e-9
-0.396, -5.169e-9
-0.398, -5.199e-9
-0.400, -5.226e-9
-0.402, -5.259e-9
-0.404, -5.286e-9
-0.406, -5.318e-9
-0.408, -5.347e-9
-0.410, -5.375e-9
-0.412, -5.404e-9
-0.414, -5.430e-9
-0.416, -5.464e-9
-0.418, -5.493e-9
-0.420, -5.522e-9
-0.422, -5.546e-9
-0.424, -5.577e-9
-0.426, -5.606e-9
-0.428, -5.644e-9
-0.430, -5.673e-9
-0.432, -5.702e-9
-0.434, -5.731e-9
-0.436, -5.754e-9
-0.438, -5.785e-9
-0.440, -5.809e-9
-0.442, -5.841e-9
-0.444, -5.861e-9
-0.446, -5.897e-9
-0.448, -5.921e-9
-0.450, -5.961e-9
-0.452, -5.982e-9
-0.454, -6.019e-9
-0.456, -6.046e-9
-0.458, -6.076e-9
-0.460, -6.111e-9
-0.462, -6.140e-9
-0.464, -6.168e-9
-0.466, -6.192e-9
-0.468, -6.223e-9
-0.470, -6.249e-9
-0.472, -6.279e-9
-0.474, -6.307e-9
-0.476, -6.342e-9
-0.478, -6.371e-9
-0.480, -6.406e-9
-0.482, -6.432e-9
-0.484, -6.462e-9
-0.486, -6.484e-9
-0.488, -6.517e-9
-0.490, -6.547e-9
-0.492, -6.581e-9
-0.494, -6.609e-9
-0.496, -6.647e-9
-0.498, -6.672e-9
-0.499, -6.690e-9