File: Supplementary Fig 4/Fig S4f Surface CV no cells/CV SURFACE (incubation) (6).txt
Mar. 6, 2025   16:10:55
Cyclic Voltammetry
File: cv surface (incubation) (6).bin
Data Source:  Experiment
Instrument Model:  CHI920C
Ref. Electrode:
Header:
Note:

Init E (V) = -0.5
High E (V) = 0.5
Low E (V) = -0.5
Init P/N = P
Scan Rate (V/s) = 0.05
Segment = 2
Sample Interval (V) = 0.001
Quiet Time (sec) = 10
Sensitivity (A/V) = 1e-7

Results:

Channel 1:
Segment 1:

Segment 2:

Potential/V, Current/A

-0.500, -4.896e-9
-0.498, -4.787e-9
-0.496, -4.720e-9
-0.494, -4.653e-9
-0.492, -4.590e-9
-0.490, -4.535e-9
-0.488, -4.480e-9
-0.486, -4.423e-9
-0.484, -4.369e-9
-0.482, -4.317e-9
-0.480, -4.269e-9
-0.478, -4.214e-9
-0.476, -4.169e-9
-0.474, -4.111e-9
-0.472, -4.061e-9
-0.470, -4.014e-9
-0.468, -3.974e-9
-0.466, -3.923e-9
-0.464, -3.883e-9
-0.462, -3.825e-9
-0.460, -3.784e-9
-0.458, -3.741e-9
-0.456, -3.702e-9
-0.454, -3.650e-9
-0.452, -3.604e-9
-0.450, -3.563e-9
-0.448, -3.519e-9
-0.446, -3.483e-9
-0.444, -3.439e-9
-0.442, -3.405e-9
-0.440, -3.357e-9
-0.438, -3.325e-9
-0.436, -3.277e-9
-0.434, -3.245e-9
-0.432, -3.201e-9
-0.430, -3.167e-9
-0.428, -3.125e-9
-0.426, -3.095e-9
-0.424, -3.052e-9
-0.422, -3.020e-9
-0.420, -2.977e-9
-0.418, -2.944e-9
-0.416, -2.907e-9
-0.414, -2.876e-9
-0.412, -2.836e-9
-0.410, -2.803e-9
-0.408, -2.766e-9
-0.406, -2.736e-9
-0.404, -2.699e-9
-0.402, -2.662e-9
-0.400, -2.630e-9
-0.398, -2.593e-9
-0.396, -2.563e-9
-0.394, -2.525e-9
-0.392, -2.496e-9
-0.390, -2.449e-9
-0.388, -2.425e-9
-0.386, -2.383e-9
-0.384, -2.360e-9
-0.382, -2.315e-9
-0.380, -2.295e-9
-0.378, -2.257e-9
-0.376, -2.233e-9
-0.374, -2.195e-9
-0.372, -2.170e-9
-0.370, -2.141e-9
-0.368, -2.113e-9
-0.366, -2.083e-9
-0.364, -2.051e-9
-0.362, -2.029e-9
-0.360, -1.998e-9
-0.358, -1.973e-9
-0.356, -1.939e-9
-0.354, -1.918e-9
-0.352, -1.889e-9
-0.350, -1.863e-9
-0.348, -1.837e-9
-0.346, -1.810e-9
-0.344, -1.789e-9
-0.342, -1.762e-9
-0.340, -1.743e-9
-0.338, -1.713e-9
-0.336, -1.694e-9
-0.334, -1.665e-9
-0.332, -1.647e-9
-0.330, -1.622e-9
-0.328, -1.603e-9
-0.326, -1.581e-9
-0.324, -1.557e-9
-0.322, -1.539e-9
-0.320, -1.514e-9
-0.318, -1.496e-9
-0.316, -1.466e-9
-0.314, -1.449e-9
-0.312, -1.423e-9
-0.310, -1.408e-9
-0.308, -1.382e-9
-0.306, -1.365e-9
-0.304, -1.340e-9
-0.302, -1.326e-9
-0.300, -1.303e-9
-0.298, -1.290e-9
-0.296, -1.265e-9
-0.294, -1.247e-9
-0.292, -1.226e-9
-0.290, -1.207e-9
-0.288, -1.188e-9
-0.286, -1.169e-9
-0.284, -1.154e-9
-0.282, -1.131e-9
-0.280, -1.117e-9
-0.278, -1.096e-9
-0.276, -1.085e-9
-0.274, -1.064e-9
-0.272, -1.053e-9
-0.270, -1.032e-9
-0.268, -1.016e-9
-0.266, -9.933e-10
-0.264, -9.753e-10
-0.262, -9.597e-10
-0.260, -9.410e-10
-0.258, -9.282e-10
-0.256, -9.110e-10
-0.254, -8.964e-10
-0.252, -8.782e-10
-0.250, -8.660e-10
-0.248, -8.480e-10
-0.246, -8.365e-10
-0.244, -8.194e-10
-0.242, -8.080e-10
-0.240, -7.917e-10
-0.238, -7.776e-10
-0.236, -7.606e-10
-0.234, -7.464e-10
-0.232, -7.314e-10
-0.230, -7.186e-10
-0.228, -7.048e-10
-0.226, -6.885e-10
-0.224, -6.772e-10
-0.222, -6.586e-10
-0.220, -6.500e-10
-0.218, -6.310e-10
-0.216, -6.231e-10
-0.214, -6.056e-10
-0.212, -5.984e-10
-0.210, -5.811e-10
-0.208, -5.733e-10
-0.206, -5.593e-10
-0.204, -5.468e-10
-0.202, -5.313e-10
-0.200, -5.164e-10
-0.198, -5.035e-10
-0.196, -4.885e-10
-0.194, -4.782e-10
-0.192, -4.616e-10
-0.190, -4.521e-10
-0.188, -4.395e-10
-0.186, -4.277e-10
-0.184, -4.159e-10
-0.182, -4.032e-10
-0.180, -3.925e-10
-0.178, -3.815e-10
-0.176, -3.681e-10
-0.174, -3.563e-10
-0.172, -3.458e-10
-0.170, -3.363e-10
-0.168, -3.261e-10
-0.166, -3.180e-10
-0.164, -3.041e-10
-0.162, -2.953e-10
-0.160, -2.801e-10
-0.158, -2.715e-10
-0.156, -2.543e-10
-0.154, -2.473e-10
-0.152, -2.326e-10
-0.150, -2.261e-10
-0.148, -2.096e-10
-0.146, -2.061e-10
-0.144, -1.900e-10
-0.142, -1.838e-10
-0.140, -1.703e-10
-0.138, -1.649e-10
-0.136, -1.497e-10
-0.134, -1.433e-10
-0.132, -1.311e-10
-0.130, -1.235e-10
-0.128, -1.129e-10
-0.126, -1.056e-10
-0.124, -9.296e-11
-0.122, -8.643e-11
-0.120, -7.736e-11
-0.118, -6.800e-11
-0.116, -5.777e-11
-0.114, -4.870e-11
-0.112, -3.808e-11
-0.110, -2.726e-11
-0.108, -2.053e-11
-0.106, -8.344e-12
-0.104, 3.901e-14
-0.102, 1.408e-11
-0.100, 1.622e-11
-0.098, 3.182e-11
-0.096, 3.348e-11
-0.094, 4.966e-11
-0.092, 5.034e-11
-0.090, 6.574e-11
-0.088, 6.623e-11
-0.086, 8.270e-11
-0.084, 8.202e-11
-0.082, 9.869e-11
-0.080, 9.898e-11
-0.078, 1.146e-10
-0.076, 1.177e-10
-0.074, 1.314e-10
-0.072, 1.345e-10
-0.070, 1.479e-10
-0.068, 1.513e-10
-0.066, 1.573e-10
-0.064, 1.617e-10
-0.062, 1.659e-10
-0.060, 1.760e-10
-0.058, 1.813e-10
-0.056, 1.931e-10
-0.054, 1.942e-10
-0.052, 2.086e-10
-0.050, 2.096e-10
-0.048, 2.228e-10
-0.046, 2.278e-10
-0.044, 2.380e-10
-0.042, 2.420e-10
-0.040, 2.529e-10
-0.038, 2.572e-10
-0.036, 2.649e-10
-0.034, 2.671e-10
-0.032, 2.786e-10
-0.030, 2.823e-10
-0.028, 2.934e-10
-0.026, 2.965e-10
-0.024, 3.064e-10
-0.022, 3.074e-10
-0.020, 3.201e-10
-0.018, 3.220e-10
-0.016, 3.308e-10
-0.014, 3.338e-10
-0.012, 3.440e-10
-0.010, 3.482e-10
-0.008, 3.576e-10
-0.006, 3.598e-10
-0.004, 3.700e-10
-0.002, 3.712e-10
0.000, 3.792e-10
0.002, 3.823e-10
0.004, 3.922e-10
0.006, 3.954e-10
0.008, 4.033e-10
0.010, 4.116e-10
0.012, 4.151e-10
0.014, 4.177e-10
0.016, 4.227e-10
0.018, 4.286e-10
0.020, 4.322e-10
0.022, 4.393e-10
0.024, 4.441e-10
0.026, 4.524e-10
0.028, 4.591e-10
0.030, 4.665e-10
0.032, 4.686e-10
0.034, 4.746e-10
0.036, 4.823e-10
0.038, 4.940e-10
0.040, 4.948e-10
0.042, 5.035e-10
0.044, 5.038e-10
0.046, 5.113e-10
0.048, 5.088e-10
0.050, 5.196e-10
0.052, 5.202e-10
0.054, 5.309e-10
0.056, 5.301e-10
0.058, 5.369e-10
0.060, 5.414e-10
0.062, 5.454e-10
0.064, 5.509e-10
0.066, 5.503e-10
0.068, 5.580e-10
0.070, 5.600e-10
0.072, 5.695e-10
0.074, 5.727e-10
0.076, 5.803e-10
0.078, 5.839e-10
0.080, 5.901e-10
0.082, 5.905e-10
0.084, 5.972e-10
0.086, 6.035e-10
0.088, 6.186e-10
0.090, 6.139e-10
0.092, 6.180e-10
0.094, 6.208e-10
0.096, 6.289e-10
0.098, 6.281e-10
0.100, 6.339e-10
0.102, 6.474e-10
0.104, 6.603e-10
0.106, 6.731e-10
0.108, 6.781e-10
0.110, 6.822e-10
0.112, 7.035e-10
0.114, 7.263e-10
0.116, 7.397e-10
0.118, 7.474e-10
0.120, 7.514e-10
0.122, 7.499e-10
0.124, 7.806e-10
0.126, 7.758e-10
0.128, 7.848e-10
0.130, 7.911e-10
0.132, 7.990e-10
0.134, 8.073e-10
0.136, 8.021e-10
0.138, 8.011e-10
0.140, 8.214e-10
0.142, 8.444e-10
0.144, 8.560e-10
0.146, 8.604e-10
0.148, 8.750e-10
0.150, 8.768e-10
0.152, 8.886e-10
0.154, 9.498e-10
0.156, 9.931e-10
0.158, 1.002e-9
0.160, 1.009e-9
0.162, 1.012e-9
0.164, 1.027e-9
0.166, 1.050e-9
0.168, 1.057e-9
0.170, 1.066e-9
0.172, 1.068e-9
0.174, 1.071e-9
0.176, 1.090e-9
0.178, 1.105e-9
0.180, 1.108e-9
0.182, 1.123e-9
0.184, 1.149e-9
0.186, 1.165e-9
0.188, 1.152e-9
0.190, 1.179e-9
0.192, 1.187e-9
0.194, 1.226e-9
0.196, 1.242e-9
0.198, 1.254e-9
0.200, 1.245e-9
0.202, 1.267e-9
0.204, 1.271e-9
0.206, 1.278e-9
0.208, 1.283e-9
0.210, 1.300e-9
0.212, 1.314e-9
0.214, 1.322e-9
0.216, 1.341e-9
0.218, 1.343e-9
0.220, 1.354e-9
0.222, 1.356e-9
0.224, 1.385e-9
0.226, 1.392e-9
0.228, 1.404e-9
0.230, 1.399e-9
0.232, 1.420e-9
0.234, 1.422e-9
0.236, 1.435e-9
0.238, 1.431e-9
0.240, 1.440e-9
0.242, 1.443e-9
0.244, 1.453e-9
0.246, 1.458e-9
0.248, 1.470e-9
0.250, 1.471e-9
0.252, 1.473e-9
0.254, 1.486e-9
0.256, 1.493e-9
0.258, 1.509e-9
0.260, 1.509e-9
0.262, 1.521e-9
0.264, 1.530e-9
0.266, 1.537e-9
0.268, 1.545e-9
0.270, 1.553e-9
0.272, 1.559e-9
0.274, 1.573e-9
0.276, 1.590e-9
0.278, 1.598e-9
0.280, 1.617e-9
0.282, 1.630e-9
0.284, 1.640e-9
0.286, 1.649e-9
0.288, 1.665e-9
0.290, 1.678e-9
0.292, 1.697e-9
0.294, 1.706e-9
0.296, 1.719e-9
0.298, 1.734e-9
0.300, 1.739e-9
0.302, 1.752e-9
0.304, 1.760e-9
0.306, 1.773e-9
0.308, 1.786e-9
0.310, 1.799e-9
0.312, 1.805e-9
0.314, 1.824e-9
0.316, 1.832e-9
0.318, 1.851e-9
0.320, 1.848e-9
0.322, 1.862e-9
0.324, 1.860e-9
0.326, 1.884e-9
0.328, 1.889e-9
0.330, 1.911e-9
0.332, 1.913e-9
0.334, 1.927e-9
0.336, 1.934e-9
0.338, 1.952e-9
0.340, 1.956e-9
0.342, 1.976e-9
0.344, 1.979e-9
0.346, 1.994e-9
0.348, 2.005e-9
0.350, 2.012e-9
0.352, 2.026e-9
0.354, 2.041e-9
0.356, 2.050e-9
0.358, 2.056e-9
0.360, 2.068e-9
0.362, 2.082e-9
0.364, 2.095e-9
0.366, 2.100e-9
0.368, 2.110e-9
0.370, 2.119e-9
0.372, 2.141e-9
0.374, 2.147e-9
0.376, 2.163e-9
0.378, 2.175e-9
0.380, 2.195e-9
0.382, 2.200e-9
0.384, 2.215e-9
0.386, 2.221e-9
0.388, 2.234e-9
0.390, 2.237e-9
0.392, 2.258e-9
0.394, 2.264e-9
0.396, 2.280e-9
0.398, 2.294e-9
0.400, 2.301e-9
0.402, 2.330e-9
0.404, 2.345e-9
0.406, 2.347e-9
0.408, 2.359e-9
0.410, 2.364e-9
0.412, 2.377e-9
0.414, 2.381e-9
0.416, 2.399e-9
0.418, 2.414e-9
0.420, 2.422e-9
0.422, 2.437e-9
0.424, 2.435e-9
0.426, 2.445e-9
0.428, 2.459e-9
0.430, 2.473e-9
0.432, 2.481e-9
0.434, 2.490e-9
0.436, 2.507e-9
0.438, 2.521e-9
0.440, 2.532e-9
0.442, 2.547e-9
0.444, 2.559e-9
0.446, 2.569e-9
0.448, 2.576e-9
0.450, 2.589e-9
0.452, 2.601e-9
0.454, 2.620e-9
0.456, 2.636e-9
0.458, 2.639e-9
0.460, 2.658e-9
0.462, 2.661e-9
0.464, 2.686e-9
0.466, 2.686e-9
0.468, 2.701e-9
0.470, 2.702e-9
0.472, 2.715e-9
0.474, 2.735e-9
0.476, 2.742e-9
0.478, 2.750e-9
0.480, 2.764e-9
0.482, 2.781e-9
0.484, 2.783e-9
0.486, 2.797e-9
0.488, 2.797e-9
0.490, 2.827e-9
0.492, 2.838e-9
0.494, 2.850e-9
0.496, 2.858e-9
0.498, 2.866e-9
0.500, 2.853e-9
0.498, 2.712e-9
0.496, 2.620e-9
0.494, 2.553e-9
0.492, 2.497e-9
0.490, 2.446e-9
0.488, 2.396e-9
0.486, 2.358e-9
0.484, 2.315e-9
0.482, 2.283e-9
0.480, 2.242e-9
0.478, 2.212e-9
0.476, 2.180e-9
0.474, 2.147e-9
0.472, 2.118e-9
0.470, 2.090e-9
0.468, 2.069e-9
0.466, 2.040e-9
0.464, 2.019e-9
0.462, 1.984e-9
0.460, 1.970e-9
0.458, 1.945e-9
0.456, 1.927e-9
0.454, 1.899e-9
0.452, 1.888e-9
0.450, 1.856e-9
0.448, 1.846e-9
0.446, 1.818e-9
0.444, 1.800e-9
0.442, 1.776e-9
0.440, 1.762e-9
0.438, 1.739e-9
0.436, 1.727e-9
0.434, 1.700e-9
0.432, 1.685e-9
0.430, 1.662e-9
0.428, 1.642e-9
0.426, 1.621e-9
0.424, 1.607e-9
0.422, 1.586e-9
0.420, 1.567e-9
0.418, 1.552e-9
0.416, 1.534e-9
0.414, 1.516e-9
0.412, 1.494e-9
0.410, 1.479e-9
0.408, 1.459e-9
0.406, 1.448e-9
0.404, 1.421e-9
0.402, 1.413e-9
0.400, 1.383e-9
0.398, 1.379e-9
0.396, 1.349e-9
0.394, 1.340e-9
0.392, 1.310e-9
0.390, 1.301e-9
0.388, 1.275e-9
0.386, 1.268e-9
0.384, 1.248e-9
0.382, 1.234e-9
0.380, 1.218e-9
0.378, 1.201e-9
0.376, 1.186e-9
0.374, 1.168e-9
0.372, 1.152e-9
0.370, 1.138e-9
0.368, 1.123e-9
0.366, 1.107e-9
0.364, 1.095e-9
0.362, 1.076e-9
0.360, 1.065e-9
0.358, 1.049e-9
0.356, 1.040e-9
0.354, 1.019e-9
0.352, 1.010e-9
0.350, 9.915e-10
0.348, 9.807e-10
0.346, 9.618e-10
0.344, 9.552e-10
0.342, 9.307e-10
0.340, 9.233e-10
0.338, 9.019e-10
0.336, 8.970e-10
0.334, 8.763e-10
0.332, 8.690e-10
0.330, 8.501e-10
0.328, 8.396e-10
0.326, 8.232e-10
0.324, 8.105e-10
0.322, 7.971e-10
0.320, 7.823e-10
0.318, 7.738e-10
0.316, 7.578e-10
0.314, 7.483e-10
0.312, 7.332e-10
0.310, 7.259e-10
0.308, 7.048e-10
0.306, 6.961e-10
0.304, 6.793e-10
0.302, 6.712e-10
0.300, 6.546e-10
0.298, 6.493e-10
0.296, 6.346e-10
0.294, 6.255e-10
0.292, 6.121e-10
0.290, 6.025e-10
0.288, 5.895e-10
0.286, 5.779e-10
0.284, 5.685e-10
0.282, 5.544e-10
0.280, 5.473e-10
0.278, 5.329e-10
0.276, 5.235e-10
0.274, 5.095e-10
0.272, 5.016e-10
0.270, 4.874e-10
0.268, 4.754e-10
0.266, 4.638e-10
0.264, 4.519e-10
0.262, 4.428e-10
0.260, 4.262e-10
0.258, 4.215e-10
0.256, 4.052e-10
0.254, 4.028e-10
0.252, 3.856e-10
0.250, 3.853e-10
0.248, 3.669e-10
0.246, 3.650e-10
0.244, 3.503e-10
0.242, 3.460e-10
0.240, 3.320e-10
0.238, 3.245e-10
0.236, 3.156e-10
0.234, 3.027e-10
0.232, 2.984e-10
0.230, 2.843e-10
0.228, 2.815e-10
0.226, 2.659e-10
0.224, 2.657e-10
0.222, 2.493e-10
0.220, 2.445e-10
0.218, 2.305e-10
0.216, 2.245e-10
0.214, 2.102e-10
0.212, 2.021e-10
0.210, 1.941e-10
0.208, 1.827e-10
0.206, 1.777e-10
0.204, 1.670e-10
0.202, 1.628e-10
0.200, 1.519e-10
0.198, 1.488e-10
0.196, 1.376e-10
0.194, 1.324e-10
0.192, 1.232e-10
0.190, 1.164e-10
0.188, 1.069e-10
0.186, 9.820e-11
0.184, 9.304e-11
0.182, 8.105e-11
0.180, 7.627e-11
0.178, 6.155e-11
0.176, 6.116e-11
0.174, 4.595e-11
0.172, 4.517e-11
0.170, 2.909e-11
0.168, 2.821e-11
0.166, 1.369e-11
0.164, 1.339e-11
0.162, -3.568e-12
0.160, -4.640e-12
0.158, -2.014e-11
0.156, -2.160e-11
0.154, -3.691e-11
0.152, -3.798e-11
0.150, -5.494e-11
0.148, -5.679e-11
0.146, -6.771e-11
0.144, -7.132e-11
0.142, -8.185e-11
0.140, -8.818e-11
0.138, -9.676e-11
0.136, -1.042e-10
0.134, -1.089e-10
0.132, -1.205e-10
0.130, -1.222e-10
0.128, -1.374e-10
0.126, -1.376e-10
0.124, -1.530e-10
0.122, -1.506e-10
0.120, -1.680e-10
0.118, -1.654e-10
0.116, -1.824e-10
0.114, -1.812e-10
0.112, -1.970e-10
0.110, -1.967e-10
0.108, -2.120e-10
0.106, -2.133e-10
0.104, -2.275e-10
0.102, -2.320e-10
0.100, -2.427e-10
0.098, -2.457e-10
0.096, -2.581e-10
0.094, -2.635e-10
0.092, -2.733e-10
0.090, -2.823e-10
0.088, -2.908e-10
0.086, -3.010e-10
0.084, -3.062e-10
0.082, -3.190e-10
0.080, -3.184e-10
0.078, -3.319e-10
0.076, -3.319e-10
0.074, -3.475e-10
0.072, -3.466e-10
0.070, -3.631e-10
0.068, -3.598e-10
0.066, -3.759e-10
0.064, -3.759e-10
0.062, -3.921e-10
0.060, -3.918e-10
0.058, -4.076e-10
0.056, -4.103e-10
0.054, -4.222e-10
0.052, -4.290e-10
0.050, -4.373e-10
0.048, -4.449e-10
0.046, -4.523e-10
0.044, -4.607e-10
0.042, -4.675e-10
0.040, -4.809e-10
0.038, -4.861e-10
0.036, -4.999e-10
0.034, -5.083e-10
0.032, -5.196e-10
0.030, -5.279e-10
0.028, -5.388e-10
0.026, -5.472e-10
0.024, -5.562e-10
0.022, -5.674e-10
0.020, -5.746e-10
0.018, -5.847e-10
0.016, -5.915e-10
0.014, -6.037e-10
0.012, -6.091e-10
0.010, -6.228e-10
0.008, -6.276e-10
0.006, -6.417e-10
0.004, -6.487e-10
0.002, -6.620e-10
-0.000, -6.674e-10
-0.002, -6.809e-10
-0.004, -6.896e-10
-0.006, -7.010e-10
-0.008, -7.118e-10
-0.010, -7.220e-10
-0.012, -7.356e-10
-0.014, -7.451e-10
-0.016, -7.594e-10
-0.018, -7.679e-10
-0.020, -7.821e-10
-0.022, -7.902e-10
-0.024, -8.047e-10
-0.026, -8.134e-10
-0.028, -8.268e-10
-0.030, -8.351e-10
-0.032, -8.479e-10
-0.034, -8.565e-10
-0.036, -8.695e-10
-0.038, -8.827e-10
-0.040, -8.958e-10
-0.042, -9.077e-10
-0.044, -9.222e-10
-0.046, -9.359e-10
-0.048, -9.472e-10
-0.050, -9.615e-10
-0.052, -9.732e-10
-0.054, -9.908e-10
-0.056, -1.005e-9
-0.058, -1.023e-9
-0.060, -1.035e-9
-0.062, -1.053e-9
-0.064, -1.063e-9
-0.066, -1.081e-9
-0.068, -1.091e-9
-0.070, -1.110e-9
-0.072, -1.119e-9
-0.074, -1.139e-9
-0.076, -1.148e-9
-0.078, -1.171e-9
-0.080, -1.181e-9
-0.082, -1.203e-9
-0.084, -1.214e-9
-0.086, -1.235e-9
-0.088, -1.251e-9
-0.090, -1.269e-9
-0.092, -1.286e-9
-0.094, -1.300e-9
-0.096, -1.319e-9
-0.098, -1.332e-9
-0.100, -1.350e-9
-0.102, -1.366e-9
-0.104, -1.386e-9
-0.106, -1.404e-9
-0.108, -1.422e-9
-0.110, -1.442e-9
-0.112, -1.457e-9
-0.114, -1.479e-9
-0.116, -1.495e-9
-0.118, -1.520e-9
-0.120, -1.534e-9
-0.122, -1.556e-9
-0.124, -1.573e-9
-0.126, -1.595e-9
-0.128, -1.612e-9
-0.130, -1.631e-9
-0.132, -1.650e-9
-0.134, -1.668e-9
-0.136, -1.689e-9
-0.138, -1.704e-9
-0.140, -1.732e-9
-0.142, -1.746e-9
-0.144, -1.774e-9
-0.146, -1.785e-9
-0.148, -1.814e-9
-0.150, -1.826e-9
-0.152, -1.859e-9
-0.154, -1.872e-9
-0.156, -1.900e-9
-0.158, -1.917e-9
-0.160, -1.942e-9
-0.162, -1.959e-9
-0.164, -1.981e-9
-0.166, -2.004e-9
-0.168, -2.024e-9
-0.170, -2.047e-9
-0.172, -2.067e-9
-0.174, -2.094e-9
-0.176, -2.113e-9
-0.178, -2.138e-9
-0.180, -2.157e-9
-0.182, -2.180e-9
-0.184, -2.201e-9
-0.186, -2.226e-9
-0.188, -2.248e-9
-0.190, -2.271e-9
-0.192, -2.290e-9
-0.194, -2.313e-9
-0.196, -2.336e-9
-0.198, -2.363e-9
-0.200, -2.384e-9
-0.202, -2.407e-9
-0.204, -2.427e-9
-0.206, -2.452e-9
-0.208, -2.474e-9
-0.210, -2.503e-9
-0.212, -2.520e-9
-0.214, -2.545e-9
-0.216, -2.562e-9
-0.218, -2.586e-9
-0.220, -2.604e-9
-0.222, -2.630e-9
-0.224, -2.647e-9
-0.226, -2.673e-9
-0.228, -2.694e-9
-0.230, -2.723e-9
-0.232, -2.742e-9
-0.234, -2.766e-9
-0.236, -2.784e-9
-0.238, -2.808e-9
-0.240, -2.834e-9
-0.242, -2.859e-9
-0.244, -2.882e-9
-0.246, -2.902e-9
-0.248, -2.927e-9
-0.250, -2.949e-9
-0.252, -2.976e-9
-0.254, -3.000e-9
-0.256, -3.024e-9
-0.258, -3.046e-9
-0.260, -3.071e-9
-0.262, -3.094e-9
-0.264, -3.120e-9
-0.266, -3.140e-9
-0.268, -3.165e-9
-0.270, -3.188e-9
-0.272, -3.218e-9
-0.274, -3.241e-9
-0.276, -3.264e-9
-0.278, -3.286e-9
-0.280, -3.313e-9
-0.282, -3.333e-9
-0.284, -3.359e-9
-0.286, -3.382e-9
-0.288, -3.406e-9
-0.290, -3.429e-9
-0.292, -3.459e-9
-0.294, -3.480e-9
-0.296, -3.503e-9
-0.298, -3.516e-9
-0.300, -3.550e-9
-0.302, -3.564e-9
-0.304, -3.599e-9
-0.306, -3.615e-9
-0.308, -3.649e-9
-0.310, -3.664e-9
-0.312, -3.698e-9
-0.314, -3.716e-9
-0.316, -3.748e-9
-0.318, -3.763e-9
-0.320, -3.794e-9
-0.322, -3.815e-9
-0.324, -3.846e-9
-0.326, -3.871e-9
-0.328, -3.897e-9
-0.330, -3.922e-9
-0.332, -3.948e-9
-0.334, -3.978e-9
-0.336, -4.000e-9
-0.338, -4.026e-9
-0.340, -4.049e-9
-0.342, -4.082e-9
-0.344, -4.106e-9
-0.346, -4.132e-9
-0.348, -4.158e-9
-0.350, -4.192e-9
-0.352, -4.209e-9
-0.354, -4.244e-9
-0.356, -4.260e-9
-0.358, -4.301e-9
-0.360, -4.323e-9
-0.362, -4.356e-9
-0.364, -4.385e-9
-0.366, -4.422e-9
-0.368, -4.447e-9
-0.370, -4.481e-9
-0.372, -4.507e-9
-0.374, -4.543e-9
-0.376, -4.571e-9
-0.378, -4.605e-9
-0.380, -4.633e-9
-0.382, -4.670e-9
-0.384, -4.697e-9
-0.386, -4.731e-9
-0.388, -4.753e-9
-0.390, -4.787e-9
-0.392, -4.818e-9
-0.394, -4.845e-9
-0.396, -4.876e-9
-0.398, -4.903e-9
-0.400, -4.943e-9
-0.402, -4.965e-9
-0.404, -5.005e-9
-0.406, -5.023e-9
-0.408, -5.065e-9
-0.410, -5.083e-9
-0.412, -5.125e-9
-0.414, -5.145e-9
-0.416, -5.187e-9
-0.418, -5.208e-9
-0.420, -5.241e-9
-0.422, -5.264e-9
-0.424, -5.298e-9
-0.426, -5.329e-9
-0.428, -5.354e-9
-0.430, -5.387e-9
-0.432, -5.423e-9
-0.434, -5.454e-9
-0.436, -5.480e-9
-0.438, -5.518e-9
-0.440, -5.549e-9
-0.442, -5.584e-9
-0.444, -5.603e-9
-0.446, -5.643e-9
-0.448, -5.673e-9
-0.450, -5.705e-9
-0.452, -5.728e-9
-0.454, -5.767e-9
-0.456, -5.794e-9
-0.458, -5.825e-9
-0.460, -5.848e-9
-0.462, -5.887e-9
-0.464, -5.911e-9
-0.466, -5.945e-9
-0.468, -5.975e-9
-0.470, -6.009e-9
-0.472, -6.034e-9
-0.474, -6.064e-9
-0.476, -6.092e-9
-0.478, -6.121e-9
-0.480, -6.156e-9
-0.482, -6.178e-9
-0.484, -6.207e-9
-0.486, -6.237e-9
-0.488, -6.267e-9
-0.490, -6.289e-9
-0.492, -6.315e-9
-0.494, -6.343e-9
-0.496, -6.375e-9
-0.498, -6.407e-9
-0.499, -6.421e-9