File: Supplementary Fig 4/Fig S4f Surface CV no cells/CV SURFACE (incubation) (9).txt
Mar. 6, 2025   16:14:24
Cyclic Voltammetry
File: cv surface (incubation) (9).bin
Data Source:  Experiment
Instrument Model:  CHI920C
Ref. Electrode:
Header:
Note:

Init E (V) = -0.5
High E (V) = 0.5
Low E (V) = -0.5
Init P/N = P
Scan Rate (V/s) = 0.05
Segment = 2
Sample Interval (V) = 0.001
Quiet Time (sec) = 10
Sensitivity (A/V) = 1e-7

Results:

Channel 1:
Segment 1:

Segment 2:

Potential/V, Current/A

-0.500, -4.598e-9
-0.498, -4.507e-9
-0.496, -4.438e-9
-0.494, -4.384e-9
-0.492, -4.317e-9
-0.490, -4.270e-9
-0.488, -4.208e-9
-0.486, -4.163e-9
-0.484, -4.099e-9
-0.482, -4.057e-9
-0.480, -4.000e-9
-0.478, -3.961e-9
-0.476, -3.908e-9
-0.474, -3.866e-9
-0.472, -3.816e-9
-0.470, -3.772e-9
-0.468, -3.731e-9
-0.466, -3.688e-9
-0.464, -3.641e-9
-0.462, -3.596e-9
-0.460, -3.554e-9
-0.458, -3.510e-9
-0.456, -3.476e-9
-0.454, -3.435e-9
-0.452, -3.389e-9
-0.450, -3.353e-9
-0.448, -3.309e-9
-0.446, -3.271e-9
-0.444, -3.228e-9
-0.442, -3.189e-9
-0.440, -3.144e-9
-0.438, -3.106e-9
-0.436, -3.067e-9
-0.434, -3.025e-9
-0.432, -2.987e-9
-0.430, -2.948e-9
-0.428, -2.912e-9
-0.426, -2.874e-9
-0.424, -2.836e-9
-0.422, -2.795e-9
-0.420, -2.764e-9
-0.418, -2.724e-9
-0.416, -2.687e-9
-0.414, -2.647e-9
-0.412, -2.615e-9
-0.410, -2.568e-9
-0.408, -2.532e-9
-0.406, -2.494e-9
-0.404, -2.455e-9
-0.402, -2.424e-9
-0.400, -2.391e-9
-0.398, -2.359e-9
-0.396, -2.315e-9
-0.394, -2.291e-9
-0.392, -2.256e-9
-0.390, -2.226e-9
-0.388, -2.192e-9
-0.386, -2.161e-9
-0.384, -2.123e-9
-0.382, -2.089e-9
-0.380, -2.055e-9
-0.378, -2.026e-9
-0.376, -1.996e-9
-0.374, -1.961e-9
-0.372, -1.936e-9
-0.370, -1.904e-9
-0.368, -1.881e-9
-0.366, -1.846e-9
-0.364, -1.820e-9
-0.362, -1.792e-9
-0.360, -1.772e-9
-0.358, -1.746e-9
-0.356, -1.711e-9
-0.354, -1.690e-9
-0.352, -1.664e-9
-0.350, -1.648e-9
-0.348, -1.620e-9
-0.346, -1.607e-9
-0.344, -1.575e-9
-0.342, -1.559e-9
-0.340, -1.532e-9
-0.338, -1.515e-9
-0.336, -1.487e-9
-0.334, -1.463e-9
-0.332, -1.444e-9
-0.330, -1.423e-9
-0.328, -1.406e-9
-0.326, -1.382e-9
-0.324, -1.365e-9
-0.322, -1.340e-9
-0.320, -1.327e-9
-0.318, -1.307e-9
-0.316, -1.293e-9
-0.314, -1.271e-9
-0.312, -1.253e-9
-0.310, -1.232e-9
-0.308, -1.211e-9
-0.306, -1.195e-9
-0.304, -1.175e-9
-0.302, -1.164e-9
-0.300, -1.142e-9
-0.298, -1.132e-9
-0.296, -1.110e-9
-0.294, -1.098e-9
-0.292, -1.081e-9
-0.290, -1.066e-9
-0.288, -1.053e-9
-0.286, -1.032e-9
-0.284, -1.021e-9
-0.282, -9.966e-10
-0.280, -9.898e-10
-0.278, -9.624e-10
-0.276, -9.588e-10
-0.274, -9.355e-10
-0.272, -9.289e-10
-0.270, -9.080e-10
-0.268, -8.996e-10
-0.266, -8.817e-10
-0.264, -8.697e-10
-0.262, -8.573e-10
-0.260, -8.422e-10
-0.258, -8.335e-10
-0.256, -8.196e-10
-0.254, -8.101e-10
-0.252, -7.952e-10
-0.250, -7.859e-10
-0.248, -7.706e-10
-0.246, -7.622e-10
-0.244, -7.446e-10
-0.242, -7.336e-10
-0.240, -7.184e-10
-0.238, -7.088e-10
-0.236, -6.961e-10
-0.234, -6.861e-10
-0.232, -6.744e-10
-0.230, -6.636e-10
-0.228, -6.548e-10
-0.226, -6.413e-10
-0.224, -6.325e-10
-0.222, -6.208e-10
-0.220, -6.109e-10
-0.218, -5.994e-10
-0.216, -5.889e-10
-0.214, -5.811e-10
-0.212, -5.690e-10
-0.210, -5.642e-10
-0.208, -5.498e-10
-0.206, -5.442e-10
-0.204, -5.277e-10
-0.202, -5.234e-10
-0.200, -5.092e-10
-0.198, -5.017e-10
-0.196, -4.882e-10
-0.194, -4.804e-10
-0.192, -4.671e-10
-0.190, -4.580e-10
-0.188, -4.484e-10
-0.186, -4.404e-10
-0.184, -4.316e-10
-0.182, -4.223e-10
-0.180, -4.163e-10
-0.178, -4.045e-10
-0.176, -4.002e-10
-0.174, -3.864e-10
-0.172, -3.805e-10
-0.170, -3.693e-10
-0.168, -3.642e-10
-0.166, -3.541e-10
-0.164, -3.470e-10
-0.162, -3.416e-10
-0.160, -3.307e-10
-0.158, -3.290e-10
-0.156, -3.173e-10
-0.154, -3.134e-10
-0.152, -3.006e-10
-0.150, -2.980e-10
-0.148, -2.862e-10
-0.146, -2.782e-10
-0.144, -2.639e-10
-0.142, -2.590e-10
-0.140, -2.517e-10
-0.138, -2.447e-10
-0.136, -2.366e-10
-0.134, -2.281e-10
-0.132, -2.214e-10
-0.130, -2.101e-10
-0.128, -2.055e-10
-0.126, -1.985e-10
-0.124, -1.927e-10
-0.122, -1.800e-10
-0.120, -1.828e-10
-0.118, -1.689e-10
-0.116, -1.683e-10
-0.114, -1.565e-10
-0.112, -1.572e-10
-0.110, -1.444e-10
-0.108, -1.419e-10
-0.106, -1.283e-10
-0.104, -1.291e-10
-0.102, -1.171e-10
-0.100, -1.171e-10
-0.098, -1.062e-10
-0.096, -1.072e-10
-0.094, -9.579e-11
-0.092, -9.111e-11
-0.090, -8.691e-11
-0.088, -6.888e-11
-0.086, -7.103e-11
-0.084, -5.650e-11
-0.082, -5.358e-11
-0.080, -3.876e-11
-0.078, -3.954e-11
-0.076, -2.882e-11
-0.074, -3.340e-11
-0.072, -1.078e-11
-0.070, -1.273e-11
-0.068, 4.426e-12
-0.066, -6.785e-12
-0.064, 4.231e-12
-0.062, 2.129e-11
-0.060, 3.650e-11
-0.058, 4.654e-11
-0.056, 7.393e-11
-0.054, 8.378e-11
-0.052, 9.079e-11
-0.050, 9.167e-11
-0.048, 9.850e-11
-0.046, 1.026e-10
-0.044, 1.030e-10
-0.042, 1.065e-10
-0.040, 1.006e-10
-0.038, 8.485e-11
-0.036, 8.514e-11
-0.034, 9.079e-11
-0.032, 9.664e-11
-0.030, 9.070e-11
-0.028, 1.003e-10
-0.026, 9.967e-11
-0.024, 1.081e-10
-0.022, 1.053e-10
-0.020, 1.048e-10
-0.018, 1.064e-10
-0.016, 1.070e-10
-0.014, 1.125e-10
-0.012, 1.196e-10
-0.010, 1.265e-10
-0.008, 1.341e-10
-0.006, 1.422e-10
-0.004, 1.466e-10
-0.002, 1.688e-10
0.000, 1.808e-10
0.002, 2.135e-10
0.004, 2.227e-10
0.006, 2.266e-10
0.008, 2.443e-10
0.010, 2.444e-10
0.012, 2.530e-10
0.014, 2.485e-10
0.016, 2.440e-10
0.018, 2.591e-10
0.020, 2.692e-10
0.022, 2.643e-10
0.024, 2.817e-10
0.026, 2.974e-10
0.028, 3.593e-10
0.030, 3.909e-10
0.032, 3.915e-10
0.034, 4.078e-10
0.036, 4.350e-10
0.038, 4.593e-10
0.040, 4.479e-10
0.042, 4.959e-10
0.044, 4.969e-10
0.046, 5.047e-10
0.048, 5.241e-10
0.050, 5.239e-10
0.052, 5.257e-10
0.054, 5.376e-10
0.056, 5.796e-10
0.058, 6.025e-10
0.060, 6.201e-10
0.062, 6.232e-10
0.064, 6.422e-10
0.066, 6.565e-10
0.068, 6.709e-10
0.070, 6.776e-10
0.072, 6.809e-10
0.074, 7.033e-10
0.076, 7.202e-10
0.078, 7.263e-10
0.080, 7.376e-10
0.082, 7.740e-10
0.084, 7.887e-10
0.086, 8.109e-10
0.088, 8.152e-10
0.090, 8.130e-10
0.092, 8.199e-10
0.094, 8.204e-10
0.096, 8.241e-10
0.098, 8.419e-10
0.100, 8.529e-10
0.102, 8.777e-10
0.104, 8.903e-10
0.106, 9.055e-10
0.108, 9.169e-10
0.110, 9.213e-10
0.112, 9.184e-10
0.114, 9.314e-10
0.116, 9.258e-10
0.118, 9.277e-10
0.120, 9.357e-10
0.122, 9.590e-10
0.124, 9.672e-10
0.126, 9.673e-10
0.128, 9.700e-10
0.130, 9.722e-10
0.132, 9.762e-10
0.134, 9.763e-10
0.136, 9.845e-10
0.138, 9.875e-10
0.140, 9.914e-10
0.142, 9.975e-10
0.144, 1.011e-9
0.146, 1.013e-9
0.148, 1.020e-9
0.150, 1.033e-9
0.152, 1.035e-9
0.154, 1.043e-9
0.156, 1.050e-9
0.158, 1.064e-9
0.160, 1.059e-9
0.162, 1.090e-9
0.164, 1.104e-9
0.166, 1.109e-9
0.168, 1.108e-9
0.170, 1.115e-9
0.172, 1.119e-9
0.174, 1.133e-9
0.176, 1.137e-9
0.178, 1.154e-9
0.180, 1.162e-9
0.182, 1.175e-9
0.184, 1.182e-9
0.186, 1.197e-9
0.188, 1.202e-9
0.190, 1.209e-9
0.192, 1.209e-9
0.194, 1.209e-9
0.196, 1.208e-9
0.198, 1.210e-9
0.200, 1.218e-9
0.202, 1.232e-9
0.204, 1.233e-9
0.206, 1.233e-9
0.208, 1.243e-9
0.210, 1.247e-9
0.212, 1.250e-9
0.214, 1.254e-9
0.216, 1.265e-9
0.218, 1.265e-9
0.220, 1.278e-9
0.222, 1.273e-9
0.224, 1.286e-9
0.226, 1.289e-9
0.228, 1.297e-9
0.230, 1.298e-9
0.232, 1.306e-9
0.234, 1.307e-9
0.236, 1.320e-9
0.238, 1.324e-9
0.240, 1.333e-9
0.242, 1.335e-9
0.244, 1.350e-9
0.246, 1.350e-9
0.248, 1.357e-9
0.250, 1.362e-9
0.252, 1.370e-9
0.254, 1.378e-9
0.256, 1.393e-9
0.258, 1.406e-9
0.260, 1.412e-9
0.262, 1.420e-9
0.264, 1.423e-9
0.266, 1.430e-9
0.268, 1.434e-9
0.270, 1.456e-9
0.272, 1.453e-9
0.274, 1.469e-9
0.276, 1.464e-9
0.278, 1.486e-9
0.280, 1.480e-9
0.282, 1.491e-9
0.284, 1.489e-9
0.286, 1.508e-9
0.288, 1.509e-9
0.290, 1.530e-9
0.292, 1.534e-9
0.294, 1.554e-9
0.296, 1.563e-9
0.298, 1.580e-9
0.300, 1.588e-9
0.302, 1.600e-9
0.304, 1.611e-9
0.306, 1.614e-9
0.308, 1.635e-9
0.310, 1.640e-9
0.312, 1.653e-9
0.314, 1.659e-9
0.316, 1.682e-9
0.318, 1.694e-9
0.320, 1.709e-9
0.322, 1.727e-9
0.324, 1.760e-9
0.326, 1.756e-9
0.328, 1.777e-9
0.330, 1.775e-9
0.332, 1.790e-9
0.334, 1.791e-9
0.336, 1.809e-9
0.338, 1.817e-9
0.340, 1.835e-9
0.342, 1.844e-9
0.344, 1.860e-9
0.346, 1.867e-9
0.348, 1.880e-9
0.350, 1.889e-9
0.352, 1.904e-9
0.354, 1.914e-9
0.356, 1.932e-9
0.358, 1.943e-9
0.360, 1.946e-9
0.362, 1.960e-9
0.364, 1.965e-9
0.366, 1.990e-9
0.368, 2.001e-9
0.370, 2.019e-9
0.372, 2.027e-9
0.374, 2.037e-9
0.376, 2.042e-9
0.378, 2.049e-9
0.380, 2.066e-9
0.382, 2.076e-9
0.384, 2.088e-9
0.386, 2.094e-9
0.388, 2.112e-9
0.390, 2.119e-9
0.392, 2.133e-9
0.394, 2.141e-9
0.396, 2.157e-9
0.398, 2.160e-9
0.400, 2.175e-9
0.402, 2.188e-9
0.404, 2.201e-9
0.406, 2.207e-9
0.408, 2.215e-9
0.410, 2.219e-9
0.412, 2.235e-9
0.414, 2.256e-9
0.416, 2.268e-9
0.418, 2.277e-9
0.420, 2.285e-9
0.422, 2.291e-9
0.424, 2.306e-9
0.426, 2.316e-9
0.428, 2.315e-9
0.430, 2.334e-9
0.432, 2.342e-9
0.434, 2.353e-9
0.436, 2.364e-9
0.438, 2.381e-9
0.440, 2.385e-9
0.442, 2.403e-9
0.444, 2.400e-9
0.446, 2.421e-9
0.448, 2.424e-9
0.450, 2.443e-9
0.452, 2.449e-9
0.454, 2.453e-9
0.456, 2.464e-9
0.458, 2.483e-9
0.460, 2.491e-9
0.462, 2.504e-9
0.464, 2.511e-9
0.466, 2.529e-9
0.468, 2.549e-9
0.470, 2.557e-9
0.472, 2.568e-9
0.474, 2.578e-9
0.476, 2.585e-9
0.478, 2.596e-9
0.480, 2.610e-9
0.482, 2.611e-9
0.484, 2.627e-9
0.486, 2.633e-9
0.488, 2.656e-9
0.490, 2.647e-9
0.492, 2.679e-9
0.494, 2.679e-9
0.496, 2.702e-9
0.498, 2.712e-9
0.500, 2.701e-9
0.498, 2.564e-9
0.496, 2.485e-9
0.494, 2.431e-9
0.492, 2.376e-9
0.490, 2.331e-9
0.488, 2.282e-9
0.486, 2.245e-9
0.484, 2.207e-9
0.482, 2.170e-9
0.480, 2.130e-9
0.478, 2.102e-9
0.476, 2.080e-9
0.474, 2.051e-9
0.472, 2.024e-9
0.470, 1.994e-9
0.468, 1.982e-9
0.466, 1.951e-9
0.464, 1.927e-9
0.462, 1.906e-9
0.460, 1.882e-9
0.458, 1.862e-9
0.456, 1.842e-9
0.454, 1.823e-9
0.452, 1.801e-9
0.450, 1.786e-9
0.448, 1.761e-9
0.446, 1.748e-9
0.444, 1.730e-9
0.442, 1.717e-9
0.440, 1.698e-9
0.438, 1.677e-9
0.436, 1.659e-9
0.434, 1.636e-9
0.432, 1.622e-9
0.430, 1.609e-9
0.428, 1.594e-9
0.426, 1.577e-9
0.424, 1.564e-9
0.422, 1.547e-9
0.420, 1.529e-9
0.418, 1.519e-9
0.416, 1.501e-9
0.414, 1.488e-9
0.412, 1.473e-9
0.410, 1.456e-9
0.408, 1.437e-9
0.406, 1.425e-9
0.404, 1.401e-9
0.402, 1.390e-9
0.400, 1.372e-9
0.398, 1.363e-9
0.396, 1.344e-9
0.394, 1.335e-9
0.392, 1.310e-9
0.390, 1.300e-9
0.388, 1.280e-9
0.386, 1.269e-9
0.384, 1.256e-9
0.382, 1.240e-9
0.380, 1.223e-9
0.378, 1.206e-9
0.376, 1.196e-9
0.374, 1.176e-9
0.372, 1.166e-9
0.370, 1.148e-9
0.368, 1.140e-9
0.366, 1.124e-9
0.364, 1.112e-9
0.362, 1.095e-9
0.360, 1.083e-9
0.358, 1.069e-9
0.356, 1.053e-9
0.354, 1.041e-9
0.352, 1.029e-9
0.350, 1.014e-9
0.348, 1.004e-9
0.346, 9.866e-10
0.344, 9.774e-10
0.342, 9.599e-10
0.340, 9.487e-10
0.338, 9.322e-10
0.336, 9.202e-10
0.334, 9.071e-10
0.332, 8.932e-10
0.330, 8.828e-10
0.328, 8.677e-10
0.326, 8.585e-10
0.324, 8.379e-10
0.322, 8.326e-10
0.320, 8.155e-10
0.318, 8.097e-10
0.316, 7.894e-10
0.314, 7.849e-10
0.312, 7.650e-10
0.310, 7.622e-10
0.308, 7.438e-10
0.306, 7.393e-10
0.304, 7.208e-10
0.302, 7.172e-10
0.300, 6.982e-10
0.298, 6.910e-10
0.296, 6.720e-10
0.294, 6.654e-10
0.292, 6.522e-10
0.290, 6.439e-10
0.288, 6.319e-10
0.286, 6.239e-10
0.284, 6.101e-10
0.282, 6.013e-10
0.280, 5.902e-10
0.278, 5.796e-10
0.276, 5.706e-10
0.274, 5.563e-10
0.272, 5.485e-10
0.270, 5.365e-10
0.268, 5.285e-10
0.266, 5.161e-10
0.264, 5.101e-10
0.262, 4.950e-10
0.260, 4.885e-10
0.258, 4.717e-10
0.256, 4.664e-10
0.254, 4.480e-10
0.252, 4.428e-10
0.250, 4.267e-10
0.248, 4.229e-10
0.246, 4.083e-10
0.244, 4.040e-10
0.242, 3.905e-10
0.240, 3.865e-10
0.238, 3.751e-10
0.236, 3.697e-10
0.234, 3.589e-10
0.232, 3.521e-10
0.230, 3.416e-10
0.228, 3.346e-10
0.226, 3.230e-10
0.224, 3.149e-10
0.222, 3.044e-10
0.220, 2.968e-10
0.218, 2.883e-10
0.216, 2.825e-10
0.214, 2.716e-10
0.212, 2.642e-10
0.210, 2.538e-10
0.208, 2.473e-10
0.206, 2.373e-10
0.204, 2.280e-10
0.202, 2.177e-10
0.200, 2.079e-10
0.198, 2.006e-10
0.196, 1.904e-10
0.194, 1.855e-10
0.192, 1.755e-10
0.190, 1.711e-10
0.188, 1.600e-10
0.186, 1.579e-10
0.184, 1.462e-10
0.182, 1.443e-10
0.180, 1.301e-10
0.178, 1.277e-10
0.176, 1.141e-10
0.174, 1.108e-10
0.172, 1.001e-10
0.170, 9.596e-11
0.168, 8.582e-11
0.166, 7.841e-11
0.164, 7.042e-11
0.162, 6.350e-11
0.160, 5.629e-11
0.158, 5.063e-11
0.156, 4.274e-11
0.154, 3.426e-11
0.152, 2.665e-11
0.150, 2.129e-11
0.148, 1.164e-11
0.146, 5.498e-12
0.144, -3.373e-12
0.142, -9.612e-12
0.140, -1.702e-11
0.138, -2.570e-11
0.136, -3.427e-11
0.134, -4.626e-11
0.132, -5.055e-11
0.130, -6.098e-11
0.128, -6.342e-11
0.126, -7.405e-11
0.124, -7.931e-11
0.122, -8.604e-11
0.120, -9.462e-11
0.118, -9.988e-11
0.116, -1.095e-10
0.114, -1.115e-10
0.112, -1.229e-10
0.110, -1.248e-10
0.108, -1.367e-10
0.106, -1.397e-10
0.104, -1.513e-10
0.102, -1.569e-10
0.100, -1.634e-10
0.098, -1.709e-10
0.096, -1.782e-10
0.094, -1.846e-10
0.092, -1.908e-10
0.090, -1.988e-10
0.088, -2.034e-10
0.086, -2.133e-10
0.084, -2.183e-10
0.082, -2.311e-10
0.080, -2.320e-10
0.078, -2.450e-10
0.076, -2.486e-10
0.074, -2.614e-10
0.072, -2.651e-10
0.070, -2.767e-10
0.068, -2.827e-10
0.066, -2.926e-10
0.064, -2.998e-10
0.062, -3.083e-10
0.060, -3.160e-10
0.058, -3.199e-10
0.056, -3.306e-10
0.054, -3.358e-10
0.052, -3.453e-10
0.050, -3.489e-10
0.048, -3.576e-10
0.046, -3.643e-10
0.044, -3.728e-10
0.042, -3.802e-10
0.040, -3.883e-10
0.038, -3.978e-10
0.036, -4.019e-10
0.034, -4.126e-10
0.032, -4.188e-10
0.030, -4.305e-10
0.028, -4.383e-10
0.026, -4.453e-10
0.024, -4.550e-10
0.022, -4.606e-10
0.020, -4.729e-10
0.018, -4.780e-10
0.016, -4.943e-10
0.014, -4.986e-10
0.012, -5.137e-10
0.010, -5.179e-10
0.008, -5.331e-10
0.006, -5.392e-10
0.004, -5.508e-10
0.002, -5.589e-10
-0.000, -5.688e-10
-0.002, -5.789e-10
-0.004, -5.875e-10
-0.006, -5.973e-10
-0.008, -6.067e-10
-0.010, -6.159e-10
-0.012, -6.263e-10
-0.014, -6.354e-10
-0.016, -6.466e-10
-0.018, -6.552e-10
-0.020, -6.678e-10
-0.022, -6.767e-10
-0.024, -6.904e-10
-0.026, -6.972e-10
-0.028, -7.117e-10
-0.030, -7.183e-10
-0.032, -7.325e-10
-0.034, -7.434e-10
-0.036, -7.566e-10
-0.038, -7.688e-10
-0.040, -7.811e-10
-0.042, -7.950e-10
-0.044, -8.021e-10
-0.046, -8.170e-10
-0.048, -8.239e-10
-0.050, -8.403e-10
-0.052, -8.460e-10
-0.054, -8.640e-10
-0.056, -8.701e-10
-0.058, -8.894e-10
-0.060, -8.974e-10
-0.062, -9.148e-10
-0.064, -9.236e-10
-0.066, -9.416e-10
-0.068, -9.538e-10
-0.070, -9.684e-10
-0.072, -9.811e-10
-0.074, -9.974e-10
-0.076, -1.015e-9
-0.078, -1.031e-9
-0.080, -1.044e-9
-0.082, -1.059e-9
-0.084, -1.072e-9
-0.086, -1.087e-9
-0.088, -1.102e-9
-0.090, -1.116e-9
-0.092, -1.132e-9
-0.094, -1.147e-9
-0.096, -1.163e-9
-0.098, -1.177e-9
-0.100, -1.196e-9
-0.102, -1.210e-9
-0.104, -1.232e-9
-0.106, -1.246e-9
-0.108, -1.271e-9
-0.110, -1.283e-9
-0.112, -1.304e-9
-0.114, -1.313e-9
-0.116, -1.336e-9
-0.118, -1.347e-9
-0.120, -1.370e-9
-0.122, -1.382e-9
-0.124, -1.406e-9
-0.126, -1.418e-9
-0.128, -1.442e-9
-0.130, -1.455e-9
-0.132, -1.481e-9
-0.134, -1.493e-9
-0.136, -1.518e-9
-0.138, -1.532e-9
-0.140, -1.555e-9
-0.142, -1.572e-9
-0.144, -1.592e-9
-0.146, -1.608e-9
-0.148, -1.626e-9
-0.150, -1.648e-9
-0.152, -1.663e-9
-0.154, -1.684e-9
-0.156, -1.703e-9
-0.158, -1.725e-9
-0.160, -1.744e-9
-0.162, -1.768e-9
-0.164, -1.783e-9
-0.166, -1.803e-9
-0.168, -1.817e-9
-0.170, -1.842e-9
-0.172, -1.861e-9
-0.174, -1.886e-9
-0.176, -1.900e-9
-0.178, -1.925e-9
-0.180, -1.940e-9
-0.182, -1.965e-9
-0.184, -1.980e-9
-0.186, -2.008e-9
-0.188, -2.021e-9
-0.190, -2.048e-9
-0.192, -2.060e-9
-0.194, -2.088e-9
-0.196, -2.104e-9
-0.198, -2.134e-9
-0.200, -2.149e-9
-0.202, -2.170e-9
-0.204, -2.192e-9
-0.206, -2.213e-9
-0.208, -2.237e-9
-0.210, -2.255e-9
-0.212, -2.281e-9
-0.214, -2.296e-9
-0.216, -2.324e-9
-0.218, -2.340e-9
-0.220, -2.368e-9
-0.222, -2.383e-9
-0.224, -2.407e-9
-0.226, -2.417e-9
-0.228, -2.441e-9
-0.230, -2.463e-9
-0.232, -2.492e-9
-0.234, -2.512e-9
-0.236, -2.531e-9
-0.238, -2.554e-9
-0.240, -2.577e-9
-0.242, -2.600e-9
-0.244, -2.620e-9
-0.246, -2.642e-9
-0.248, -2.666e-9
-0.250, -2.685e-9
-0.252, -2.712e-9
-0.254, -2.729e-9
-0.256, -2.758e-9
-0.258, -2.773e-9
-0.260, -2.806e-9
-0.262, -2.818e-9
-0.264, -2.852e-9
-0.266, -2.867e-9
-0.268, -2.897e-9
-0.270, -2.918e-9
-0.272, -2.938e-9
-0.274, -2.963e-9
-0.276, -2.989e-9
-0.278, -3.014e-9
-0.280, -3.039e-9
-0.282, -3.064e-9
-0.284, -3.080e-9
-0.286, -3.109e-9
-0.288, -3.127e-9
-0.290, -3.160e-9
-0.292, -3.177e-9
-0.294, -3.213e-9
-0.296, -3.228e-9
-0.298, -3.254e-9
-0.300, -3.270e-9
-0.302, -3.302e-9
-0.304, -3.324e-9
-0.306, -3.348e-9
-0.308, -3.373e-9
-0.310, -3.397e-9
-0.312, -3.428e-9
-0.314, -3.451e-9
-0.316, -3.478e-9
-0.318, -3.497e-9
-0.320, -3.522e-9
-0.322, -3.542e-9
-0.324, -3.572e-9
-0.326, -3.599e-9
-0.328, -3.620e-9
-0.330, -3.650e-9
-0.332, -3.679e-9
-0.334, -3.704e-9
-0.336, -3.729e-9
-0.338, -3.756e-9
-0.340, -3.779e-9
-0.342, -3.800e-9
-0.344, -3.827e-9
-0.346, -3.854e-9
-0.348, -3.876e-9
-0.350, -3.903e-9
-0.352, -3.933e-9
-0.354, -3.965e-9
-0.356, -3.987e-9
-0.358, -4.016e-9
-0.360, -4.044e-9
-0.362, -4.067e-9
-0.364, -4.088e-9
-0.366, -4.121e-9
-0.368, -4.157e-9
-0.370, -4.190e-9
-0.372, -4.216e-9
-0.374, -4.242e-9
-0.376, -4.271e-9
-0.378, -4.292e-9
-0.380, -4.335e-9
-0.382, -4.363e-9
-0.384, -4.390e-9
-0.386, -4.421e-9
-0.388, -4.455e-9
-0.390, -4.481e-9
-0.392, -4.517e-9
-0.394, -4.546e-9
-0.396, -4.577e-9
-0.398, -4.606e-9
-0.400, -4.642e-9
-0.402, -4.671e-9
-0.404, -4.700e-9
-0.406, -4.727e-9
-0.408, -4.757e-9
-0.410, -4.791e-9
-0.412, -4.828e-9
-0.414, -4.867e-9
-0.416, -4.901e-9
-0.418, -4.944e-9
-0.420, -4.968e-9
-0.422, -5.001e-9
-0.424, -5.028e-9
-0.426, -5.060e-9
-0.428, -5.093e-9
-0.430, -5.131e-9
-0.432, -5.158e-9
-0.434, -5.192e-9
-0.436, -5.217e-9
-0.438, -5.247e-9
-0.440, -5.285e-9
-0.442, -5.312e-9
-0.444, -5.340e-9
-0.446, -5.366e-9
-0.448, -5.397e-9
-0.450, -5.420e-9
-0.452, -5.454e-9
-0.454, -5.481e-9
-0.456, -5.516e-9
-0.458, -5.540e-9
-0.460, -5.571e-9
-0.462, -5.603e-9
-0.464, -5.630e-9
-0.466, -5.671e-9
-0.468, -5.700e-9
-0.470, -5.727e-9
-0.472, -5.749e-9
-0.474, -5.784e-9
-0.476, -5.813e-9
-0.478, -5.837e-9
-0.480, -5.862e-9
-0.482, -5.893e-9
-0.484, -5.917e-9
-0.486, -5.943e-9
-0.488, -5.974e-9
-0.490, -6.011e-9
-0.492, -6.035e-9
-0.494, -6.064e-9
-0.496, -6.099e-9
-0.498, -6.139e-9
-0.499, -6.157e-9