File: Supplementary Fig 4/Fig S4f Surface CV no cells/CV SURFACE (incubation) (7).txt
Mar. 6, 2025   16:12:06
Cyclic Voltammetry
File: cv surface (incubation) (7).bin
Data Source:  Experiment
Instrument Model:  CHI920C
Ref. Electrode:
Header:
Note:

Init E (V) = -0.5
High E (V) = 0.5
Low E (V) = -0.5
Init P/N = P
Scan Rate (V/s) = 0.05
Segment = 2
Sample Interval (V) = 0.001
Quiet Time (sec) = 10
Sensitivity (A/V) = 1e-7

Results:

Channel 1:
Segment 1:

Segment 2:

Potential/V, Current/A

-0.500, -4.756e-9
-0.498, -4.664e-9
-0.496, -4.595e-9
-0.494, -4.521e-9
-0.492, -4.473e-9
-0.490, -4.409e-9
-0.488, -4.354e-9
-0.486, -4.307e-9
-0.484, -4.248e-9
-0.482, -4.206e-9
-0.480, -4.133e-9
-0.478, -4.098e-9
-0.476, -4.038e-9
-0.474, -4.001e-9
-0.472, -3.944e-9
-0.470, -3.906e-9
-0.468, -3.848e-9
-0.466, -3.811e-9
-0.464, -3.763e-9
-0.462, -3.730e-9
-0.460, -3.678e-9
-0.458, -3.631e-9
-0.456, -3.580e-9
-0.454, -3.540e-9
-0.452, -3.501e-9
-0.450, -3.463e-9
-0.448, -3.415e-9
-0.446, -3.372e-9
-0.444, -3.335e-9
-0.442, -3.289e-9
-0.440, -3.249e-9
-0.438, -3.214e-9
-0.436, -3.165e-9
-0.434, -3.135e-9
-0.432, -3.093e-9
-0.430, -3.056e-9
-0.428, -3.015e-9
-0.426, -2.977e-9
-0.424, -2.935e-9
-0.422, -2.910e-9
-0.420, -2.869e-9
-0.418, -2.832e-9
-0.416, -2.790e-9
-0.414, -2.762e-9
-0.412, -2.721e-9
-0.410, -2.686e-9
-0.408, -2.652e-9
-0.406, -2.619e-9
-0.404, -2.588e-9
-0.402, -2.553e-9
-0.400, -2.524e-9
-0.398, -2.488e-9
-0.396, -2.458e-9
-0.394, -2.424e-9
-0.392, -2.394e-9
-0.390, -2.361e-9
-0.388, -2.331e-9
-0.386, -2.298e-9
-0.384, -2.272e-9
-0.382, -2.240e-9
-0.380, -2.213e-9
-0.378, -2.177e-9
-0.376, -2.154e-9
-0.374, -2.119e-9
-0.372, -2.098e-9
-0.370, -2.061e-9
-0.368, -2.040e-9
-0.366, -2.006e-9
-0.364, -1.986e-9
-0.362, -1.952e-9
-0.360, -1.928e-9
-0.358, -1.901e-9
-0.356, -1.874e-9
-0.354, -1.847e-9
-0.352, -1.816e-9
-0.350, -1.798e-9
-0.348, -1.765e-9
-0.346, -1.749e-9
-0.344, -1.711e-9
-0.342, -1.697e-9
-0.340, -1.662e-9
-0.338, -1.652e-9
-0.336, -1.618e-9
-0.334, -1.602e-9
-0.332, -1.571e-9
-0.330, -1.555e-9
-0.328, -1.527e-9
-0.326, -1.505e-9
-0.324, -1.480e-9
-0.322, -1.455e-9
-0.320, -1.437e-9
-0.318, -1.412e-9
-0.316, -1.395e-9
-0.314, -1.370e-9
-0.312, -1.353e-9
-0.310, -1.330e-9
-0.308, -1.314e-9
-0.306, -1.293e-9
-0.304, -1.276e-9
-0.302, -1.255e-9
-0.300, -1.236e-9
-0.298, -1.215e-9
-0.296, -1.197e-9
-0.294, -1.178e-9
-0.292, -1.162e-9
-0.290, -1.141e-9
-0.288, -1.125e-9
-0.286, -1.105e-9
-0.284, -1.092e-9
-0.282, -1.073e-9
-0.280, -1.059e-9
-0.278, -1.041e-9
-0.276, -1.024e-9
-0.274, -1.005e-9
-0.272, -9.873e-10
-0.270, -9.698e-10
-0.268, -9.512e-10
-0.266, -9.379e-10
-0.264, -9.207e-10
-0.262, -9.096e-10
-0.260, -8.892e-10
-0.258, -8.787e-10
-0.256, -8.581e-10
-0.254, -8.467e-10
-0.252, -8.304e-10
-0.250, -8.190e-10
-0.248, -8.058e-10
-0.246, -7.922e-10
-0.244, -7.780e-10
-0.242, -7.598e-10
-0.240, -7.488e-10
-0.238, -7.288e-10
-0.236, -7.217e-10
-0.234, -7.035e-10
-0.232, -6.959e-10
-0.230, -6.788e-10
-0.228, -6.686e-10
-0.226, -6.514e-10
-0.224, -6.406e-10
-0.222, -6.274e-10
-0.220, -6.140e-10
-0.218, -6.033e-10
-0.216, -5.876e-10
-0.214, -5.806e-10
-0.212, -5.642e-10
-0.210, -5.583e-10
-0.208, -5.387e-10
-0.206, -5.321e-10
-0.204, -5.128e-10
-0.202, -5.047e-10
-0.200, -4.877e-10
-0.198, -4.757e-10
-0.196, -4.632e-10
-0.194, -4.526e-10
-0.192, -4.430e-10
-0.190, -4.268e-10
-0.188, -4.198e-10
-0.186, -4.026e-10
-0.184, -3.974e-10
-0.182, -3.803e-10
-0.180, -3.735e-10
-0.178, -3.618e-10
-0.176, -3.533e-10
-0.174, -3.418e-10
-0.172, -3.332e-10
-0.170, -3.241e-10
-0.168, -3.118e-10
-0.166, -3.039e-10
-0.164, -2.906e-10
-0.162, -2.840e-10
-0.160, -2.664e-10
-0.158, -2.597e-10
-0.156, -2.438e-10
-0.154, -2.375e-10
-0.152, -2.225e-10
-0.150, -2.172e-10
-0.148, -2.018e-10
-0.146, -1.975e-10
-0.144, -1.844e-10
-0.142, -1.790e-10
-0.140, -1.654e-10
-0.138, -1.566e-10
-0.136, -1.465e-10
-0.134, -1.414e-10
-0.132, -1.302e-10
-0.130, -1.221e-10
-0.128, -1.133e-10
-0.126, -1.027e-10
-0.124, -9.764e-11
-0.122, -8.701e-11
-0.120, -8.302e-11
-0.118, -6.976e-11
-0.116, -6.752e-11
-0.114, -5.007e-11
-0.112, -4.802e-11
-0.110, -2.804e-11
-0.108, -2.648e-11
-0.106, -6.785e-12
-0.104, -1.020e-11
-0.102, 1.222e-11
-0.100, 1.203e-11
-0.098, 3.318e-11
-0.096, 2.460e-11
-0.094, 4.225e-11
-0.092, 3.923e-11
-0.090, 5.258e-11
-0.088, 6.457e-11
-0.086, 6.750e-11
-0.084, 7.471e-11
-0.082, 7.802e-11
-0.080, 9.050e-11
-0.078, 9.157e-11
-0.076, 1.059e-10
-0.074, 1.044e-10
-0.072, 1.204e-10
-0.070, 1.197e-10
-0.068, 1.332e-10
-0.066, 1.328e-10
-0.064, 1.445e-10
-0.062, 1.477e-10
-0.060, 1.576e-10
-0.058, 1.610e-10
-0.056, 1.663e-10
-0.054, 1.868e-10
-0.052, 2.002e-10
-0.050, 2.093e-10
-0.048, 2.155e-10
-0.046, 2.215e-10
-0.044, 2.245e-10
-0.042, 2.235e-10
-0.040, 2.262e-10
-0.038, 2.293e-10
-0.036, 2.395e-10
-0.034, 2.399e-10
-0.032, 2.489e-10
-0.030, 2.497e-10
-0.028, 2.610e-10
-0.026, 2.619e-10
-0.024, 2.720e-10
-0.022, 2.749e-10
-0.020, 2.848e-10
-0.018, 2.869e-10
-0.016, 2.942e-10
-0.014, 2.983e-10
-0.012, 3.045e-10
-0.010, 3.112e-10
-0.008, 3.148e-10
-0.006, 3.224e-10
-0.004, 3.233e-10
-0.002, 3.342e-10
0.000, 3.416e-10
0.002, 3.565e-10
0.004, 3.582e-10
0.006, 3.573e-10
0.008, 3.593e-10
0.010, 3.741e-10
0.012, 3.665e-10
0.014, 3.856e-10
0.016, 3.822e-10
0.018, 3.871e-10
0.020, 3.885e-10
0.022, 4.007e-10
0.024, 3.969e-10
0.026, 4.034e-10
0.028, 4.071e-10
0.030, 4.141e-10
0.032, 4.165e-10
0.034, 4.289e-10
0.036, 4.262e-10
0.038, 4.305e-10
0.040, 4.332e-10
0.042, 4.359e-10
0.044, 4.438e-10
0.046, 4.479e-10
0.048, 4.559e-10
0.050, 4.589e-10
0.052, 4.674e-10
0.054, 4.697e-10
0.056, 4.754e-10
0.058, 4.770e-10
0.060, 4.808e-10
0.062, 4.885e-10
0.064, 4.926e-10
0.066, 5.003e-10
0.068, 5.020e-10
0.070, 5.132e-10
0.072, 5.102e-10
0.074, 5.199e-10
0.076, 5.218e-10
0.078, 5.285e-10
0.080, 5.292e-10
0.082, 5.357e-10
0.084, 5.352e-10
0.086, 5.411e-10
0.088, 5.481e-10
0.090, 5.577e-10
0.092, 5.720e-10
0.094, 5.703e-10
0.096, 5.901e-10
0.098, 5.880e-10
0.100, 5.956e-10
0.102, 5.945e-10
0.104, 6.050e-10
0.106, 5.948e-10
0.108, 6.214e-10
0.110, 6.549e-10
0.112, 6.642e-10
0.114, 6.670e-10
0.116, 6.830e-10
0.118, 6.970e-10
0.120, 7.020e-10
0.122, 7.120e-10
0.124, 7.142e-10
0.126, 7.225e-10
0.128, 7.231e-10
0.130, 7.346e-10
0.132, 7.241e-10
0.134, 7.693e-10
0.136, 7.910e-10
0.138, 8.214e-10
0.140, 8.267e-10
0.142, 8.530e-10
0.144, 8.757e-10
0.146, 8.616e-10
0.148, 8.784e-10
0.150, 9.048e-10
0.152, 9.012e-10
0.154, 9.063e-10
0.156, 9.181e-10
0.158, 9.326e-10
0.160, 9.464e-10
0.162, 9.788e-10
0.164, 1.001e-9
0.166, 1.042e-9
0.168, 1.052e-9
0.170, 1.053e-9
0.172, 1.057e-9
0.174, 1.061e-9
0.176, 1.075e-9
0.178, 1.085e-9
0.180, 1.084e-9
0.182, 1.106e-9
0.184, 1.100e-9
0.186, 1.121e-9
0.188, 1.112e-9
0.190, 1.141e-9
0.192, 1.138e-9
0.194, 1.173e-9
0.196, 1.168e-9
0.198, 1.184e-9
0.200, 1.202e-9
0.202, 1.243e-9
0.204, 1.246e-9
0.206, 1.253e-9
0.208, 1.252e-9
0.210, 1.247e-9
0.212, 1.268e-9
0.214, 1.280e-9
0.216, 1.297e-9
0.218, 1.301e-9
0.220, 1.318e-9
0.222, 1.322e-9
0.224, 1.345e-9
0.226, 1.372e-9
0.228, 1.378e-9
0.230, 1.375e-9
0.232, 1.395e-9
0.234, 1.386e-9
0.236, 1.414e-9
0.238, 1.405e-9
0.240, 1.419e-9
0.242, 1.416e-9
0.244, 1.425e-9
0.246, 1.426e-9
0.248, 1.436e-9
0.250, 1.452e-9
0.252, 1.458e-9
0.254, 1.468e-9
0.256, 1.465e-9
0.258, 1.496e-9
0.260, 1.498e-9
0.262, 1.501e-9
0.264, 1.509e-9
0.266, 1.527e-9
0.268, 1.520e-9
0.270, 1.531e-9
0.272, 1.535e-9
0.274, 1.553e-9
0.276, 1.557e-9
0.278, 1.564e-9
0.280, 1.577e-9
0.282, 1.589e-9
0.284, 1.597e-9
0.286, 1.609e-9
0.288, 1.624e-9
0.290, 1.636e-9
0.292, 1.644e-9
0.294, 1.655e-9
0.296, 1.670e-9
0.298, 1.686e-9
0.300, 1.690e-9
0.302, 1.706e-9
0.304, 1.716e-9
0.306, 1.726e-9
0.308, 1.736e-9
0.310, 1.746e-9
0.312, 1.757e-9
0.314, 1.775e-9
0.316, 1.782e-9
0.318, 1.796e-9
0.320, 1.808e-9
0.322, 1.830e-9
0.324, 1.844e-9
0.326, 1.854e-9
0.328, 1.860e-9
0.330, 1.865e-9
0.332, 1.876e-9
0.334, 1.886e-9
0.336, 1.900e-9
0.338, 1.913e-9
0.340, 1.925e-9
0.342, 1.938e-9
0.344, 1.953e-9
0.346, 1.960e-9
0.348, 1.969e-9
0.350, 1.986e-9
0.352, 2.000e-9
0.354, 2.001e-9
0.356, 2.017e-9
0.358, 2.019e-9
0.360, 2.038e-9
0.362, 2.046e-9
0.364, 2.060e-9
0.366, 2.067e-9
0.368, 2.087e-9
0.370, 2.098e-9
0.372, 2.111e-9
0.374, 2.120e-9
0.376, 2.127e-9
0.378, 2.143e-9
0.380, 2.153e-9
0.382, 2.173e-9
0.384, 2.183e-9
0.386, 2.199e-9
0.388, 2.213e-9
0.390, 2.227e-9
0.392, 2.237e-9
0.394, 2.243e-9
0.396, 2.260e-9
0.398, 2.269e-9
0.400, 2.285e-9
0.402, 2.299e-9
0.404, 2.321e-9
0.406, 2.330e-9
0.408, 2.350e-9
0.410, 2.352e-9
0.412, 2.361e-9
0.414, 2.378e-9
0.416, 2.378e-9
0.418, 2.393e-9
0.420, 2.401e-9
0.422, 2.416e-9
0.424, 2.426e-9
0.426, 2.444e-9
0.428, 2.457e-9
0.430, 2.468e-9
0.432, 2.475e-9
0.434, 2.488e-9
0.436, 2.501e-9
0.438, 2.511e-9
0.440, 2.521e-9
0.442, 2.531e-9
0.444, 2.543e-9
0.446, 2.541e-9
0.448, 2.554e-9
0.450, 2.568e-9
0.452, 2.577e-9
0.454, 2.586e-9
0.456, 2.594e-9
0.458, 2.616e-9
0.460, 2.626e-9
0.462, 2.633e-9
0.464, 2.637e-9
0.466, 2.656e-9
0.468, 2.667e-9
0.470, 2.685e-9
0.472, 2.690e-9
0.474, 2.705e-9
0.476, 2.716e-9
0.478, 2.727e-9
0.480, 2.738e-9
0.482, 2.751e-9
0.484, 2.761e-9
0.486, 2.774e-9
0.488, 2.785e-9
0.490, 2.792e-9
0.492, 2.807e-9
0.494, 2.815e-9
0.496, 2.821e-9
0.498, 2.825e-9
0.500, 2.814e-9
0.498, 2.676e-9
0.496, 2.599e-9
0.494, 2.529e-9
0.492, 2.476e-9
0.490, 2.428e-9
0.488, 2.381e-9
0.486, 2.335e-9
0.484, 2.294e-9
0.482, 2.264e-9
0.480, 2.227e-9
0.478, 2.197e-9
0.476, 2.157e-9
0.474, 2.131e-9
0.472, 2.103e-9
0.470, 2.085e-9
0.468, 2.060e-9
0.466, 2.035e-9
0.464, 2.009e-9
0.462, 1.982e-9
0.460, 1.961e-9
0.458, 1.933e-9
0.456, 1.912e-9
0.454, 1.887e-9
0.452, 1.866e-9
0.450, 1.840e-9
0.448, 1.825e-9
0.446, 1.796e-9
0.444, 1.782e-9
0.442, 1.752e-9
0.440, 1.740e-9
0.438, 1.718e-9
0.436, 1.699e-9
0.434, 1.675e-9
0.432, 1.659e-9
0.430, 1.636e-9
0.428, 1.622e-9
0.426, 1.607e-9
0.424, 1.587e-9
0.422, 1.570e-9
0.420, 1.552e-9
0.418, 1.535e-9
0.416, 1.512e-9
0.414, 1.501e-9
0.412, 1.483e-9
0.410, 1.470e-9
0.408, 1.452e-9
0.406, 1.441e-9
0.404, 1.415e-9
0.402, 1.403e-9
0.400, 1.379e-9
0.398, 1.370e-9
0.396, 1.345e-9
0.394, 1.335e-9
0.392, 1.309e-9
0.390, 1.298e-9
0.388, 1.277e-9
0.386, 1.270e-9
0.384, 1.249e-9
0.382, 1.234e-9
0.380, 1.214e-9
0.378, 1.198e-9
0.376, 1.182e-9
0.374, 1.164e-9
0.372, 1.153e-9
0.370, 1.133e-9
0.368, 1.127e-9
0.366, 1.104e-9
0.364, 1.099e-9
0.362, 1.074e-9
0.360, 1.071e-9
0.358, 1.047e-9
0.356, 1.042e-9
0.354, 1.019e-9
0.352, 1.010e-9
0.350, 9.884e-10
0.348, 9.806e-10
0.346, 9.650e-10
0.344, 9.527e-10
0.342, 9.363e-10
0.340, 9.233e-10
0.338, 9.106e-10
0.336, 8.945e-10
0.334, 8.849e-10
0.332, 8.650e-10
0.330, 8.573e-10
0.328, 8.402e-10
0.326, 8.324e-10
0.324, 8.132e-10
0.322, 8.065e-10
0.320, 7.895e-10
0.318, 7.815e-10
0.316, 7.638e-10
0.314, 7.581e-10
0.312, 7.437e-10
0.310, 7.347e-10
0.308, 7.172e-10
0.306, 7.048e-10
0.304, 6.926e-10
0.302, 6.799e-10
0.300, 6.725e-10
0.298, 6.569e-10
0.296, 6.515e-10
0.294, 6.354e-10
0.292, 6.300e-10
0.290, 6.121e-10
0.288, 6.058e-10
0.286, 5.918e-10
0.284, 5.826e-10
0.282, 5.702e-10
0.280, 5.581e-10
0.278, 5.525e-10
0.276, 5.369e-10
0.274, 5.320e-10
0.272, 5.153e-10
0.270, 5.107e-10
0.268, 4.912e-10
0.266, 4.871e-10
0.264, 4.675e-10
0.262, 4.643e-10
0.260, 4.450e-10
0.258, 4.395e-10
0.256, 4.242e-10
0.254, 4.194e-10
0.252, 4.065e-10
0.250, 4.011e-10
0.248, 3.884e-10
0.246, 3.815e-10
0.244, 3.727e-10
0.242, 3.642e-10
0.240, 3.551e-10
0.238, 3.454e-10
0.236, 3.357e-10
0.234, 3.237e-10
0.232, 3.188e-10
0.230, 3.044e-10
0.228, 3.012e-10
0.226, 2.868e-10
0.224, 2.834e-10
0.222, 2.672e-10
0.220, 2.647e-10
0.218, 2.500e-10
0.216, 2.455e-10
0.214, 2.316e-10
0.212, 2.279e-10
0.210, 2.132e-10
0.208, 2.087e-10
0.206, 1.935e-10
0.204, 1.896e-10
0.202, 1.755e-10
0.200, 1.726e-10
0.198, 1.610e-10
0.196, 1.553e-10
0.194, 1.443e-10
0.192, 1.392e-10
0.190, 1.292e-10
0.188, 1.208e-10
0.186, 1.140e-10
0.184, 1.041e-10
0.182, 9.957e-11
0.180, 8.602e-11
0.178, 8.222e-11
0.176, 6.711e-11
0.174, 6.672e-11
0.172, 5.229e-11
0.170, 5.102e-11
0.168, 3.689e-11
0.166, 3.426e-11
0.164, 2.246e-11
0.162, 1.593e-11
0.160, 6.863e-12
0.158, -1.618e-12
0.156, -8.052e-12
0.154, -1.897e-11
0.152, -2.472e-11
0.150, -3.788e-11
0.148, -4.178e-11
0.146, -5.377e-11
0.144, -5.874e-11
0.142, -6.927e-11
0.140, -7.483e-11
0.138, -8.438e-11
0.136, -9.062e-11
0.134, -9.842e-11
0.132, -1.082e-10
0.130, -1.128e-10
0.128, -1.224e-10
0.126, -1.251e-10
0.124, -1.374e-10
0.122, -1.390e-10
0.120, -1.529e-10
0.118, -1.549e-10
0.116, -1.681e-10
0.114, -1.691e-10
0.112, -1.828e-10
0.110, -1.838e-10
0.108, -1.971e-10
0.106, -2.001e-10
0.104, -2.114e-10
0.102, -2.176e-10
0.100, -2.265e-10
0.098, -2.302e-10
0.096, -2.404e-10
0.094, -2.448e-10
0.092, -2.550e-10
0.090, -2.635e-10
0.088, -2.717e-10
0.086, -2.815e-10
0.084, -2.865e-10
0.082, -2.984e-10
0.080, -3.017e-10
0.078, -3.152e-10
0.076, -3.161e-10
0.074, -3.286e-10
0.072, -3.299e-10
0.070, -3.419e-10
0.068, -3.440e-10
0.066, -3.596e-10
0.064, -3.587e-10
0.062, -3.733e-10
0.060, -3.728e-10
0.058, -3.866e-10
0.056, -3.911e-10
0.054, -4.029e-10
0.052, -4.080e-10
0.050, -4.167e-10
0.048, -4.246e-10
0.046, -4.317e-10
0.044, -4.395e-10
0.042, -4.455e-10
0.040, -4.554e-10
0.038, -4.608e-10
0.036, -4.743e-10
0.034, -4.790e-10
0.032, -4.929e-10
0.030, -4.968e-10
0.028, -5.115e-10
0.026, -5.162e-10
0.024, -5.334e-10
0.022, -5.365e-10
0.020, -5.529e-10
0.018, -5.573e-10
0.016, -5.712e-10
0.014, -5.733e-10
0.012, -5.872e-10
0.010, -5.888e-10
0.008, -6.047e-10
0.006, -6.079e-10
0.004, -6.237e-10
0.002, -6.279e-10
-0.000, -6.431e-10
-0.002, -6.497e-10
-0.004, -6.614e-10
-0.006, -6.699e-10
-0.008, -6.801e-10
-0.010, -6.907e-10
-0.012, -6.992e-10
-0.014, -7.154e-10
-0.016, -7.199e-10
-0.018, -7.374e-10
-0.020, -7.403e-10
-0.022, -7.595e-10
-0.024, -7.638e-10
-0.026, -7.813e-10
-0.028, -7.886e-10
-0.030, -8.027e-10
-0.032, -8.117e-10
-0.034, -8.223e-10
-0.036, -8.359e-10
-0.038, -8.435e-10
-0.040, -8.568e-10
-0.042, -8.651e-10
-0.044, -8.812e-10
-0.046, -8.919e-10
-0.048, -9.060e-10
-0.050, -9.187e-10
-0.052, -9.316e-10
-0.054, -9.452e-10
-0.056, -9.564e-10
-0.058, -9.706e-10
-0.060, -9.839e-10
-0.062, -1.001e-9
-0.064, -1.013e-9
-0.066, -1.032e-9
-0.068, -1.041e-9
-0.070, -1.060e-9
-0.072, -1.070e-9
-0.074, -1.087e-9
-0.076, -1.095e-9
-0.078, -1.116e-9
-0.080, -1.122e-9
-0.082, -1.146e-9
-0.084, -1.155e-9
-0.086, -1.176e-9
-0.088, -1.183e-9
-0.090, -1.204e-9
-0.092, -1.217e-9
-0.094, -1.235e-9
-0.096, -1.252e-9
-0.098, -1.271e-9
-0.100, -1.289e-9
-0.102, -1.302e-9
-0.104, -1.322e-9
-0.106, -1.330e-9
-0.108, -1.354e-9
-0.110, -1.365e-9
-0.112, -1.389e-9
-0.114, -1.401e-9
-0.116, -1.422e-9
-0.118, -1.434e-9
-0.120, -1.454e-9
-0.122, -1.469e-9
-0.124, -1.491e-9
-0.126, -1.512e-9
-0.128, -1.528e-9
-0.130, -1.548e-9
-0.132, -1.564e-9
-0.134, -1.585e-9
-0.136, -1.601e-9
-0.138, -1.622e-9
-0.140, -1.641e-9
-0.142, -1.657e-9
-0.144, -1.675e-9
-0.146, -1.691e-9
-0.148, -1.714e-9
-0.150, -1.732e-9
-0.152, -1.755e-9
-0.154, -1.772e-9
-0.156, -1.795e-9
-0.158, -1.809e-9
-0.160, -1.832e-9
-0.162, -1.851e-9
-0.164, -1.874e-9
-0.166, -1.893e-9
-0.168, -1.912e-9
-0.170, -1.931e-9
-0.172, -1.949e-9
-0.174, -1.974e-9
-0.176, -1.992e-9
-0.178, -2.017e-9
-0.180, -2.034e-9
-0.182, -2.058e-9
-0.184, -2.074e-9
-0.186, -2.101e-9
-0.188, -2.119e-9
-0.190, -2.143e-9
-0.192, -2.161e-9
-0.194, -2.183e-9
-0.196, -2.207e-9
-0.198, -2.227e-9
-0.200, -2.250e-9
-0.202, -2.268e-9
-0.204, -2.290e-9
-0.206, -2.307e-9
-0.208, -2.335e-9
-0.210, -2.355e-9
-0.212, -2.378e-9
-0.214, -2.395e-9
-0.216, -2.417e-9
-0.218, -2.438e-9
-0.220, -2.458e-9
-0.222, -2.484e-9
-0.224, -2.499e-9
-0.226, -2.522e-9
-0.228, -2.537e-9
-0.230, -2.561e-9
-0.232, -2.579e-9
-0.234, -2.604e-9
-0.236, -2.623e-9
-0.238, -2.650e-9
-0.240, -2.668e-9
-0.242, -2.693e-9
-0.244, -2.715e-9
-0.246, -2.739e-9
-0.248, -2.760e-9
-0.250, -2.781e-9
-0.252, -2.807e-9
-0.254, -2.830e-9
-0.256, -2.855e-9
-0.258, -2.875e-9
-0.260, -2.899e-9
-0.262, -2.921e-9
-0.264, -2.945e-9
-0.266, -2.969e-9
-0.268, -2.997e-9
-0.270, -3.018e-9
-0.272, -3.041e-9
-0.274, -3.063e-9
-0.276, -3.086e-9
-0.278, -3.108e-9
-0.280, -3.133e-9
-0.282, -3.152e-9
-0.284, -3.182e-9
-0.286, -3.203e-9
-0.288, -3.233e-9
-0.290, -3.251e-9
-0.292, -3.277e-9
-0.294, -3.295e-9
-0.296, -3.319e-9
-0.298, -3.347e-9
-0.300, -3.368e-9
-0.302, -3.393e-9
-0.304, -3.421e-9
-0.306, -3.446e-9
-0.308, -3.471e-9
-0.310, -3.490e-9
-0.312, -3.509e-9
-0.314, -3.532e-9
-0.316, -3.558e-9
-0.318, -3.584e-9
-0.320, -3.604e-9
-0.322, -3.637e-9
-0.324, -3.663e-9
-0.326, -3.695e-9
-0.328, -3.716e-9
-0.330, -3.746e-9
-0.332, -3.761e-9
-0.334, -3.791e-9
-0.336, -3.804e-9
-0.338, -3.842e-9
-0.340, -3.860e-9
-0.342, -3.897e-9
-0.344, -3.923e-9
-0.346, -3.948e-9
-0.348, -3.969e-9
-0.350, -3.997e-9
-0.352, -4.024e-9
-0.354, -4.053e-9
-0.356, -4.090e-9
-0.358, -4.115e-9
-0.360, -4.146e-9
-0.362, -4.176e-9
-0.364, -4.212e-9
-0.366, -4.233e-9
-0.368, -4.267e-9
-0.370, -4.291e-9
-0.372, -4.323e-9
-0.374, -4.349e-9
-0.376, -4.388e-9
-0.378, -4.408e-9
-0.380, -4.441e-9
-0.382, -4.468e-9
-0.384, -4.506e-9
-0.386, -4.528e-9
-0.388, -4.564e-9
-0.390, -4.591e-9
-0.392, -4.629e-9
-0.394, -4.664e-9
-0.396, -4.700e-9
-0.398, -4.727e-9
-0.400, -4.757e-9
-0.402, -4.782e-9
-0.404, -4.822e-9
-0.406, -4.846e-9
-0.408, -4.877e-9
-0.410, -4.899e-9
-0.412, -4.940e-9
-0.414, -4.974e-9
-0.416, -5.000e-9
-0.418, -5.037e-9
-0.420, -5.060e-9
-0.422, -5.112e-9
-0.424, -5.133e-9
-0.426, -5.179e-9
-0.428, -5.198e-9
-0.430, -5.240e-9
-0.432, -5.261e-9
-0.434, -5.304e-9
-0.436, -5.325e-9
-0.438, -5.359e-9
-0.440, -5.380e-9
-0.442, -5.423e-9
-0.444, -5.445e-9
-0.446, -5.482e-9
-0.448, -5.504e-9
-0.450, -5.541e-9
-0.452, -5.567e-9
-0.454, -5.601e-9
-0.456, -5.631e-9
-0.458, -5.668e-9
-0.460, -5.701e-9
-0.462, -5.736e-9
-0.464, -5.770e-9
-0.466, -5.793e-9
-0.468, -5.831e-9
-0.470, -5.861e-9
-0.472, -5.895e-9
-0.474, -5.922e-9
-0.476, -5.955e-9
-0.478, -5.977e-9
-0.480, -6.011e-9
-0.482, -6.036e-9
-0.484, -6.064e-9
-0.486, -6.089e-9
-0.488, -6.119e-9
-0.490, -6.150e-9
-0.492, -6.184e-9
-0.494, -6.210e-9
-0.496, -6.240e-9
-0.498, -6.278e-9
-0.499, -6.291e-9