File: Supplementary Fig 4/Fig S4f Surface CV no cells/CV SURFACE (incubation) (10).txt
Mar. 6, 2025   16:15:29
Cyclic Voltammetry
File: cv surface (incubation) (10).bin
Data Source:  Experiment
Instrument Model:  CHI920C
Ref. Electrode:
Header:
Note:

Init E (V) = -0.5
High E (V) = 0.5
Low E (V) = -0.5
Init P/N = P
Scan Rate (V/s) = 0.05
Segment = 2
Sample Interval (V) = 0.001
Quiet Time (sec) = 10
Sensitivity (A/V) = 1e-7

Results:

Channel 1:
Segment 1:

Segment 2:

Potential/V, Current/A

-0.500, -4.528e-9
-0.498, -4.431e-9
-0.496, -4.374e-9
-0.494, -4.312e-9
-0.492, -4.253e-9
-0.490, -4.196e-9
-0.488, -4.149e-9
-0.486, -4.089e-9
-0.484, -4.043e-9
-0.482, -3.989e-9
-0.480, -3.943e-9
-0.478, -3.886e-9
-0.476, -3.835e-9
-0.474, -3.781e-9
-0.472, -3.741e-9
-0.470, -3.688e-9
-0.468, -3.633e-9
-0.466, -3.582e-9
-0.464, -3.540e-9
-0.462, -3.498e-9
-0.460, -3.454e-9
-0.458, -3.407e-9
-0.456, -3.363e-9
-0.454, -3.323e-9
-0.452, -3.282e-9
-0.450, -3.236e-9
-0.448, -3.202e-9
-0.446, -3.168e-9
-0.444, -3.124e-9
-0.442, -3.086e-9
-0.440, -3.053e-9
-0.438, -3.013e-9
-0.436, -2.972e-9
-0.434, -2.928e-9
-0.432, -2.891e-9
-0.430, -2.860e-9
-0.428, -2.814e-9
-0.426, -2.781e-9
-0.424, -2.736e-9
-0.422, -2.708e-9
-0.420, -2.669e-9
-0.418, -2.634e-9
-0.416, -2.591e-9
-0.414, -2.560e-9
-0.412, -2.525e-9
-0.410, -2.488e-9
-0.408, -2.456e-9
-0.406, -2.421e-9
-0.404, -2.398e-9
-0.402, -2.353e-9
-0.400, -2.326e-9
-0.398, -2.288e-9
-0.396, -2.267e-9
-0.394, -2.223e-9
-0.392, -2.194e-9
-0.390, -2.161e-9
-0.388, -2.139e-9
-0.386, -2.108e-9
-0.384, -2.074e-9
-0.382, -2.048e-9
-0.380, -2.021e-9
-0.378, -1.995e-9
-0.376, -1.961e-9
-0.374, -1.940e-9
-0.372, -1.910e-9
-0.370, -1.886e-9
-0.368, -1.851e-9
-0.366, -1.834e-9
-0.364, -1.804e-9
-0.362, -1.786e-9
-0.360, -1.756e-9
-0.358, -1.736e-9
-0.356, -1.705e-9
-0.354, -1.686e-9
-0.352, -1.662e-9
-0.350, -1.643e-9
-0.348, -1.616e-9
-0.346, -1.600e-9
-0.344, -1.574e-9
-0.342, -1.555e-9
-0.340, -1.531e-9
-0.338, -1.510e-9
-0.336, -1.487e-9
-0.334, -1.465e-9
-0.332, -1.444e-9
-0.330, -1.421e-9
-0.328, -1.404e-9
-0.326, -1.380e-9
-0.324, -1.365e-9
-0.322, -1.341e-9
-0.320, -1.325e-9
-0.318, -1.305e-9
-0.316, -1.291e-9
-0.314, -1.267e-9
-0.312, -1.248e-9
-0.310, -1.225e-9
-0.308, -1.208e-9
-0.306, -1.186e-9
-0.304, -1.173e-9
-0.302, -1.154e-9
-0.300, -1.140e-9
-0.298, -1.120e-9
-0.296, -1.106e-9
-0.294, -1.087e-9
-0.292, -1.075e-9
-0.290, -1.058e-9
-0.288, -1.042e-9
-0.286, -1.027e-9
-0.284, -1.008e-9
-0.282, -9.934e-10
-0.280, -9.742e-10
-0.278, -9.613e-10
-0.276, -9.417e-10
-0.274, -9.335e-10
-0.272, -9.132e-10
-0.270, -9.062e-10
-0.268, -8.858e-10
-0.266, -8.799e-10
-0.264, -8.579e-10
-0.262, -8.528e-10
-0.260, -8.322e-10
-0.258, -8.280e-10
-0.256, -8.095e-10
-0.254, -8.046e-10
-0.252, -7.856e-10
-0.250, -7.811e-10
-0.248, -7.642e-10
-0.246, -7.550e-10
-0.244, -7.379e-10
-0.242, -7.286e-10
-0.240, -7.148e-10
-0.238, -7.065e-10
-0.236, -6.928e-10
-0.234, -6.838e-10
-0.232, -6.751e-10
-0.230, -6.682e-10
-0.228, -6.564e-10
-0.226, -6.470e-10
-0.224, -6.368e-10
-0.222, -6.270e-10
-0.220, -6.177e-10
-0.218, -6.044e-10
-0.216, -5.984e-10
-0.214, -5.850e-10
-0.212, -5.817e-10
-0.210, -5.650e-10
-0.208, -5.654e-10
-0.206, -5.465e-10
-0.204, -5.475e-10
-0.202, -5.265e-10
-0.200, -5.251e-10
-0.198, -5.061e-10
-0.196, -5.042e-10
-0.194, -4.851e-10
-0.192, -4.835e-10
-0.190, -4.709e-10
-0.188, -4.644e-10
-0.186, -4.532e-10
-0.184, -4.464e-10
-0.182, -4.400e-10
-0.180, -4.278e-10
-0.178, -4.248e-10
-0.176, -4.125e-10
-0.174, -4.103e-10
-0.172, -3.947e-10
-0.170, -3.958e-10
-0.168, -3.781e-10
-0.166, -3.774e-10
-0.164, -3.634e-10
-0.162, -3.602e-10
-0.160, -3.504e-10
-0.158, -3.460e-10
-0.156, -3.374e-10
-0.154, -3.302e-10
-0.152, -3.264e-10
-0.150, -3.164e-10
-0.148, -3.105e-10
-0.146, -3.000e-10
-0.144, -2.978e-10
-0.142, -2.819e-10
-0.140, -2.826e-10
-0.138, -2.656e-10
-0.136, -2.658e-10
-0.134, -2.494e-10
-0.132, -2.508e-10
-0.130, -2.354e-10
-0.128, -2.365e-10
-0.126, -2.238e-10
-0.124, -2.196e-10
-0.122, -2.113e-10
-0.120, -2.067e-10
-0.118, -2.000e-10
-0.116, -1.941e-10
-0.114, -1.892e-10
-0.112, -1.823e-10
-0.110, -1.783e-10
-0.108, -1.696e-10
-0.106, -1.658e-10
-0.104, -1.559e-10
-0.102, -1.513e-10
-0.100, -1.411e-10
-0.098, -1.397e-10
-0.096, -1.286e-10
-0.094, -1.289e-10
-0.092, -1.165e-10
-0.090, -1.178e-10
-0.088, -1.064e-10
-0.086, -1.059e-10
-0.084, -9.832e-11
-0.082, -9.793e-11
-0.080, -8.721e-11
-0.078, -8.730e-11
-0.076, -8.009e-11
-0.074, -7.522e-11
-0.072, -6.898e-11
-0.070, -6.352e-11
-0.068, -6.050e-11
-0.066, -5.065e-11
-0.064, -4.695e-11
-0.062, -4.543e-12
-0.060, 2.236e-11
-0.058, 2.919e-11
-0.056, 3.201e-11
-0.054, 4.186e-11
-0.052, 2.977e-11
-0.050, 7.545e-12
-0.048, -5.030e-12
-0.046, 6.570e-12
-0.044, 3.158e-12
-0.042, 1.349e-11
-0.040, 1.193e-11
-0.038, 2.168e-11
-0.036, 2.353e-11
-0.034, 2.607e-11
-0.032, 4.264e-11
-0.030, 5.229e-11
-0.028, 7.676e-11
-0.026, 8.914e-11
-0.024, 1.082e-10
-0.022, 6.935e-11
-0.020, 7.013e-11
-0.018, 6.750e-11
-0.016, 7.218e-11
-0.014, 7.013e-11
-0.012, 7.413e-11
-0.010, 7.656e-11
-0.008, 8.124e-11
-0.006, 8.231e-11
-0.004, 8.768e-11
-0.002, 9.089e-11
0.000, 9.440e-11
0.002, 9.538e-11
0.004, 1.020e-10
0.006, 1.079e-10
0.008, 1.144e-10
0.010, 1.199e-10
0.012, 1.220e-10
0.014, 1.232e-10
0.016, 1.315e-10
0.018, 1.279e-10
0.020, 1.301e-10
0.022, 1.545e-10
0.024, 1.655e-10
0.026, 1.546e-10
0.028, 1.693e-10
0.030, 1.881e-10
0.032, 2.018e-10
0.034, 2.038e-10
0.036, 2.090e-10
0.038, 2.154e-10
0.040, 2.113e-10
0.042, 2.046e-10
0.044, 2.137e-10
0.046, 2.180e-10
0.048, 2.222e-10
0.050, 2.192e-10
0.052, 2.295e-10
0.054, 2.241e-10
0.056, 2.287e-10
0.058, 2.261e-10
0.060, 2.207e-10
0.062, 2.114e-10
0.064, 2.173e-10
0.066, 2.159e-10
0.068, 2.289e-10
0.070, 2.281e-10
0.072, 2.216e-10
0.074, 2.332e-10
0.076, 2.289e-10
0.078, 2.436e-10
0.080, 2.394e-10
0.082, 2.407e-10
0.084, 2.301e-10
0.086, 2.469e-10
0.088, 2.407e-10
0.090, 2.673e-10
0.092, 2.872e-10
0.094, 3.028e-10
0.096, 2.887e-10
0.098, 3.110e-10
0.100, 3.458e-10
0.102, 3.580e-10
0.104, 3.642e-10
0.106, 3.632e-10
0.108, 3.472e-10
0.110, 3.378e-10
0.112, 3.589e-10
0.114, 3.615e-10
0.116, 3.813e-10
0.118, 3.702e-10
0.120, 3.652e-10
0.122, 3.635e-10
0.124, 4.002e-10
0.126, 4.291e-10
0.128, 4.771e-10
0.130, 4.772e-10
0.132, 5.125e-10
0.134, 5.222e-10
0.136, 5.530e-10
0.138, 5.655e-10
0.140, 5.614e-10
0.142, 5.624e-10
0.144, 5.953e-10
0.146, 6.165e-10
0.148, 6.159e-10
0.150, 6.566e-10
0.152, 6.806e-10
0.154, 7.293e-10
0.156, 7.496e-10
0.158, 7.702e-10
0.160, 7.864e-10
0.162, 8.114e-10
0.164, 8.708e-10
0.166, 8.743e-10
0.168, 8.859e-10
0.170, 9.027e-10
0.172, 9.463e-10
0.174, 9.629e-10
0.176, 9.739e-10
0.178, 9.886e-10
0.180, 9.916e-10
0.182, 9.902e-10
0.184, 1.000e-9
0.186, 1.009e-9
0.188, 1.037e-9
0.190, 1.035e-9
0.192, 1.029e-9
0.194, 1.050e-9
0.196, 1.059e-9
0.198, 1.065e-9
0.200, 1.072e-9
0.202, 1.078e-9
0.204, 1.080e-9
0.206, 1.079e-9
0.208, 1.181e-9
0.210, 1.191e-9
0.212, 1.221e-9
0.214, 1.238e-9
0.216, 1.241e-9
0.218, 1.253e-9
0.220, 1.256e-9
0.222, 1.245e-9
0.224, 1.250e-9
0.226, 1.253e-9
0.228, 1.262e-9
0.230, 1.293e-9
0.232, 1.288e-9
0.234, 1.298e-9
0.236, 1.292e-9
0.238, 1.326e-9
0.240, 1.337e-9
0.242, 1.340e-9
0.244, 1.334e-9
0.246, 1.343e-9
0.248, 1.344e-9
0.250, 1.362e-9
0.252, 1.358e-9
0.254, 1.372e-9
0.256, 1.372e-9
0.258, 1.385e-9
0.260, 1.390e-9
0.262, 1.402e-9
0.264, 1.404e-9
0.266, 1.412e-9
0.268, 1.414e-9
0.270, 1.421e-9
0.272, 1.428e-9
0.274, 1.432e-9
0.276, 1.454e-9
0.278, 1.445e-9
0.280, 1.453e-9
0.282, 1.455e-9
0.284, 1.469e-9
0.286, 1.464e-9
0.288, 1.483e-9
0.290, 1.487e-9
0.292, 1.491e-9
0.294, 1.500e-9
0.296, 1.515e-9
0.298, 1.510e-9
0.300, 1.524e-9
0.302, 1.537e-9
0.304, 1.541e-9
0.306, 1.547e-9
0.308, 1.550e-9
0.310, 1.563e-9
0.312, 1.567e-9
0.314, 1.578e-9
0.316, 1.589e-9
0.318, 1.597e-9
0.320, 1.592e-9
0.322, 1.600e-9
0.324, 1.603e-9
0.326, 1.619e-9
0.328, 1.626e-9
0.330, 1.627e-9
0.332, 1.648e-9
0.334, 1.652e-9
0.336, 1.669e-9
0.338, 1.671e-9
0.340, 1.689e-9
0.342, 1.696e-9
0.344, 1.708e-9
0.346, 1.719e-9
0.348, 1.741e-9
0.350, 1.754e-9
0.352, 1.759e-9
0.354, 1.773e-9
0.356, 1.783e-9
0.358, 1.785e-9
0.360, 1.804e-9
0.362, 1.816e-9
0.364, 1.821e-9
0.366, 1.839e-9
0.368, 1.852e-9
0.370, 1.874e-9
0.372, 1.886e-9
0.374, 1.890e-9
0.376, 1.907e-9
0.378, 1.934e-9
0.380, 1.944e-9
0.382, 1.962e-9
0.384, 1.973e-9
0.386, 1.985e-9
0.388, 2.003e-9
0.390, 2.011e-9
0.392, 2.014e-9
0.394, 2.030e-9
0.396, 2.037e-9
0.398, 2.049e-9
0.400, 2.046e-9
0.402, 2.070e-9
0.404, 2.072e-9
0.406, 2.096e-9
0.408, 2.103e-9
0.410, 2.120e-9
0.412, 2.127e-9
0.414, 2.156e-9
0.416, 2.161e-9
0.418, 2.184e-9
0.420, 2.192e-9
0.422, 2.196e-9
0.424, 2.213e-9
0.426, 2.215e-9
0.428, 2.233e-9
0.430, 2.234e-9
0.432, 2.255e-9
0.434, 2.253e-9
0.436, 2.275e-9
0.438, 2.281e-9
0.440, 2.300e-9
0.442, 2.316e-9
0.444, 2.339e-9
0.446, 2.347e-9
0.448, 2.360e-9
0.450, 2.368e-9
0.452, 2.369e-9
0.454, 2.381e-9
0.456, 2.395e-9
0.458, 2.401e-9
0.460, 2.425e-9
0.462, 2.437e-9
0.464, 2.458e-9
0.466, 2.482e-9
0.468, 2.480e-9
0.470, 2.502e-9
0.472, 2.510e-9
0.474, 2.525e-9
0.476, 2.531e-9
0.478, 2.543e-9
0.480, 2.556e-9
0.482, 2.573e-9
0.484, 2.576e-9
0.486, 2.588e-9
0.488, 2.589e-9
0.490, 2.599e-9
0.492, 2.607e-9
0.494, 2.632e-9
0.496, 2.643e-9
0.498, 2.662e-9
0.500, 2.646e-9
0.498, 2.526e-9
0.496, 2.450e-9
0.494, 2.392e-9
0.492, 2.336e-9
0.490, 2.302e-9
0.488, 2.260e-9
0.486, 2.228e-9
0.484, 2.185e-9
0.482, 2.149e-9
0.480, 2.120e-9
0.478, 2.094e-9
0.476, 2.080e-9
0.474, 2.055e-9
0.472, 2.031e-9
0.470, 2.004e-9
0.468, 1.987e-9
0.466, 1.965e-9
0.464, 1.948e-9
0.462, 1.923e-9
0.460, 1.898e-9
0.458, 1.882e-9
0.456, 1.865e-9
0.454, 1.840e-9
0.452, 1.818e-9
0.450, 1.803e-9
0.448, 1.788e-9
0.446, 1.771e-9
0.444, 1.755e-9
0.442, 1.733e-9
0.440, 1.723e-9
0.438, 1.706e-9
0.436, 1.690e-9
0.434, 1.670e-9
0.432, 1.654e-9
0.430, 1.637e-9
0.428, 1.622e-9
0.426, 1.606e-9
0.424, 1.594e-9
0.422, 1.580e-9
0.420, 1.564e-9
0.418, 1.548e-9
0.416, 1.536e-9
0.414, 1.523e-9
0.412, 1.508e-9
0.410, 1.492e-9
0.408, 1.480e-9
0.406, 1.464e-9
0.404, 1.452e-9
0.402, 1.442e-9
0.400, 1.417e-9
0.398, 1.414e-9
0.396, 1.393e-9
0.394, 1.385e-9
0.392, 1.363e-9
0.390, 1.356e-9
0.388, 1.334e-9
0.386, 1.324e-9
0.384, 1.312e-9
0.382, 1.299e-9
0.380, 1.285e-9
0.378, 1.266e-9
0.376, 1.260e-9
0.374, 1.241e-9
0.372, 1.234e-9
0.370, 1.214e-9
0.368, 1.207e-9
0.366, 1.190e-9
0.364, 1.181e-9
0.362, 1.162e-9
0.360, 1.152e-9
0.358, 1.136e-9
0.356, 1.124e-9
0.354, 1.112e-9
0.352, 1.096e-9
0.350, 1.089e-9
0.348, 1.073e-9
0.346, 1.059e-9
0.344, 1.046e-9
0.342, 1.033e-9
0.340, 1.016e-9
0.338, 1.011e-9
0.336, 9.979e-10
0.334, 9.876e-10
0.332, 9.709e-10
0.330, 9.636e-10
0.328, 9.471e-10
0.326, 9.374e-10
0.324, 9.173e-10
0.322, 9.100e-10
0.320, 8.940e-10
0.318, 8.859e-10
0.316, 8.727e-10
0.314, 8.628e-10
0.312, 8.494e-10
0.310, 8.382e-10
0.308, 8.219e-10
0.306, 8.099e-10
0.304, 7.996e-10
0.302, 7.910e-10
0.300, 7.779e-10
0.298, 7.661e-10
0.296, 7.604e-10
0.294, 7.434e-10
0.292, 7.401e-10
0.290, 7.189e-10
0.288, 7.165e-10
0.286, 6.981e-10
0.284, 6.962e-10
0.282, 6.739e-10
0.280, 6.739e-10
0.278, 6.534e-10
0.276, 6.498e-10
0.274, 6.342e-10
0.272, 6.333e-10
0.270, 6.154e-10
0.268, 6.116e-10
0.266, 5.975e-10
0.264, 5.911e-10
0.262, 5.780e-10
0.260, 5.686e-10
0.258, 5.570e-10
0.256, 5.481e-10
0.254, 5.389e-10
0.252, 5.274e-10
0.250, 5.194e-10
0.248, 5.056e-10
0.246, 4.999e-10
0.244, 4.839e-10
0.242, 4.805e-10
0.240, 4.604e-10
0.238, 4.564e-10
0.236, 4.384e-10
0.234, 4.346e-10
0.232, 4.188e-10
0.230, 4.166e-10
0.228, 4.019e-10
0.226, 3.993e-10
0.224, 3.857e-10
0.222, 3.835e-10
0.220, 3.698e-10
0.218, 3.684e-10
0.216, 3.512e-10
0.214, 3.502e-10
0.212, 3.356e-10
0.210, 3.333e-10
0.208, 3.192e-10
0.206, 3.147e-10
0.204, 3.024e-10
0.202, 2.966e-10
0.200, 2.863e-10
0.198, 2.817e-10
0.196, 2.706e-10
0.194, 2.644e-10
0.192, 2.557e-10
0.190, 2.464e-10
0.188, 2.393e-10
0.186, 2.267e-10
0.184, 2.241e-10
0.182, 2.098e-10
0.180, 2.073e-10
0.178, 1.903e-10
0.176, 1.896e-10
0.174, 1.747e-10
0.172, 1.749e-10
0.170, 1.613e-10
0.168, 1.591e-10
0.166, 1.458e-10
0.164, 1.457e-10
0.162, 1.340e-10
0.160, 1.311e-10
0.158, 1.191e-10
0.156, 1.159e-10
0.154, 1.061e-10
0.152, 1.005e-10
0.150, 9.099e-11
0.148, 8.261e-11
0.146, 7.578e-11
0.144, 6.711e-11
0.142, 6.262e-11
0.140, 5.005e-11
0.138, 4.858e-11
0.136, 3.591e-11
0.134, 3.348e-11
0.132, 2.051e-11
0.130, 1.866e-11
0.128, 6.083e-12
0.126, 3.548e-12
0.124, -1.117e-11
0.122, -1.595e-11
0.120, -2.696e-11
0.118, -3.155e-11
0.116, -4.188e-11
0.114, -4.636e-11
0.112, -5.845e-11
0.110, -6.459e-11
0.108, -7.697e-11
0.106, -7.951e-11
0.104, -8.818e-11
0.102, -9.530e-11
0.100, -1.023e-10
0.098, -1.073e-10
0.096, -1.151e-10
0.094, -1.235e-10
0.092, -1.284e-10
0.090, -1.397e-10
0.088, -1.435e-10
0.086, -1.526e-10
0.084, -1.563e-10
0.082, -1.665e-10
0.080, -1.726e-10
0.078, -1.809e-10
0.076, -1.888e-10
0.074, -1.962e-10
0.072, -2.028e-10
0.070, -2.114e-10
0.068, -2.173e-10
0.066, -2.279e-10
0.064, -2.307e-10
0.062, -2.456e-10
0.060, -2.461e-10
0.058, -2.630e-10
0.056, -2.635e-10
0.054, -2.796e-10
0.052, -2.818e-10
0.050, -2.962e-10
0.048, -3.006e-10
0.046, -3.110e-10
0.044, -3.170e-10
0.042, -3.238e-10
0.040, -3.330e-10
0.038, -3.391e-10
0.036, -3.506e-10
0.034, -3.531e-10
0.032, -3.646e-10
0.030, -3.679e-10
0.028, -3.828e-10
0.026, -3.859e-10
0.024, -3.995e-10
0.022, -4.012e-10
0.020, -4.166e-10
0.018, -4.215e-10
0.016, -4.352e-10
0.014, -4.390e-10
0.012, -4.520e-10
0.010, -4.578e-10
0.008, -4.701e-10
0.006, -4.759e-10
0.004, -4.887e-10
0.002, -4.976e-10
-0.000, -5.073e-10
-0.002, -5.208e-10
-0.004, -5.291e-10
-0.006, -5.449e-10
-0.008, -5.500e-10
-0.010, -5.679e-10
-0.012, -5.686e-10
-0.014, -5.873e-10
-0.016, -5.874e-10
-0.018, -6.068e-10
-0.020, -6.090e-10
-0.022, -6.281e-10
-0.024, -6.313e-10
-0.026, -6.460e-10
-0.028, -6.525e-10
-0.030, -6.669e-10
-0.032, -6.755e-10
-0.034, -6.888e-10
-0.036, -6.996e-10
-0.038, -7.101e-10
-0.040, -7.243e-10
-0.042, -7.336e-10
-0.044, -7.498e-10
-0.046, -7.591e-10
-0.048, -7.754e-10
-0.050, -7.854e-10
-0.052, -8.005e-10
-0.054, -8.088e-10
-0.056, -8.223e-10
-0.058, -8.317e-10
-0.060, -8.459e-10
-0.062, -8.559e-10
-0.064, -8.733e-10
-0.066, -8.854e-10
-0.068, -9.011e-10
-0.070, -9.112e-10
-0.072, -9.295e-10
-0.074, -9.396e-10
-0.076, -9.570e-10
-0.078, -9.681e-10
-0.080, -9.870e-10
-0.082, -1.000e-9
-0.084, -1.022e-9
-0.086, -1.034e-9
-0.088, -1.052e-9
-0.090, -1.065e-9
-0.092, -1.081e-9
-0.094, -1.096e-9
-0.096, -1.112e-9
-0.098, -1.129e-9
-0.100, -1.141e-9
-0.102, -1.161e-9
-0.104, -1.174e-9
-0.106, -1.192e-9
-0.108, -1.206e-9
-0.110, -1.231e-9
-0.112, -1.243e-9
-0.114, -1.268e-9
-0.116, -1.280e-9
-0.118, -1.301e-9
-0.120, -1.313e-9
-0.122, -1.333e-9
-0.124, -1.345e-9
-0.126, -1.366e-9
-0.128, -1.380e-9
-0.130, -1.402e-9
-0.132, -1.418e-9
-0.134, -1.440e-9
-0.136, -1.456e-9
-0.138, -1.478e-9
-0.140, -1.499e-9
-0.142, -1.519e-9
-0.144, -1.538e-9
-0.146, -1.556e-9
-0.148, -1.577e-9
-0.150, -1.592e-9
-0.152, -1.613e-9
-0.154, -1.628e-9
-0.156, -1.651e-9
-0.158, -1.662e-9
-0.160, -1.684e-9
-0.162, -1.700e-9
-0.164, -1.724e-9
-0.166, -1.743e-9
-0.168, -1.765e-9
-0.170, -1.783e-9
-0.172, -1.802e-9
-0.174, -1.816e-9
-0.176, -1.840e-9
-0.178, -1.857e-9
-0.180, -1.880e-9
-0.182, -1.894e-9
-0.184, -1.919e-9
-0.186, -1.935e-9
-0.188, -1.958e-9
-0.190, -1.976e-9
-0.192, -2.001e-9
-0.194, -2.019e-9
-0.196, -2.039e-9
-0.198, -2.059e-9
-0.200, -2.083e-9
-0.202, -2.104e-9
-0.204, -2.123e-9
-0.206, -2.142e-9
-0.208, -2.161e-9
-0.210, -2.178e-9
-0.212, -2.201e-9
-0.214, -2.228e-9
-0.216, -2.244e-9
-0.218, -2.271e-9
-0.220, -2.283e-9
-0.222, -2.308e-9
-0.224, -2.326e-9
-0.226, -2.360e-9
-0.228, -2.373e-9
-0.230, -2.402e-9
-0.232, -2.415e-9
-0.234, -2.441e-9
-0.236, -2.463e-9
-0.238, -2.490e-9
-0.240, -2.512e-9
-0.242, -2.531e-9
-0.244, -2.552e-9
-0.246, -2.570e-9
-0.248, -2.598e-9
-0.250, -2.620e-9
-0.252, -2.639e-9
-0.254, -2.663e-9
-0.256, -2.683e-9
-0.258, -2.704e-9
-0.260, -2.728e-9
-0.262, -2.758e-9
-0.264, -2.773e-9
-0.266, -2.792e-9
-0.268, -2.825e-9
-0.270, -2.854e-9
-0.272, -2.878e-9
-0.274, -2.897e-9
-0.276, -2.917e-9
-0.278, -2.938e-9
-0.280, -2.972e-9
-0.282, -2.991e-9
-0.284, -3.010e-9
-0.286, -3.036e-9
-0.288, -3.060e-9
-0.290, -3.079e-9
-0.292, -3.106e-9
-0.294, -3.131e-9
-0.296, -3.161e-9
-0.298, -3.179e-9
-0.300, -3.207e-9
-0.302, -3.231e-9
-0.304, -3.258e-9
-0.306, -3.285e-9
-0.308, -3.313e-9
-0.310, -3.338e-9
-0.312, -3.355e-9
-0.314, -3.376e-9
-0.316, -3.410e-9
-0.318, -3.445e-9
-0.320, -3.466e-9
-0.322, -3.492e-9
-0.324, -3.512e-9
-0.326, -3.538e-9
-0.328, -3.558e-9
-0.330, -3.589e-9
-0.332, -3.616e-9
-0.334, -3.645e-9
-0.336, -3.671e-9
-0.338, -3.694e-9
-0.340, -3.730e-9
-0.342, -3.751e-9
-0.344, -3.784e-9
-0.346, -3.804e-9
-0.348, -3.827e-9
-0.350, -3.846e-9
-0.352, -3.889e-9
-0.354, -3.891e-9
-0.356, -3.936e-9
-0.358, -3.950e-9
-0.360, -3.984e-9
-0.362, -4.010e-9
-0.364, -4.040e-9
-0.366, -4.066e-9
-0.368, -4.090e-9
-0.370, -4.122e-9
-0.372, -4.144e-9
-0.374, -4.193e-9
-0.376, -4.206e-9
-0.378, -4.238e-9
-0.380, -4.270e-9
-0.382, -4.310e-9
-0.384, -4.343e-9
-0.386, -4.377e-9
-0.388, -4.400e-9
-0.390, -4.436e-9
-0.392, -4.458e-9
-0.394, -4.492e-9
-0.396, -4.525e-9
-0.398, -4.550e-9
-0.400, -4.580e-9
-0.402, -4.611e-9
-0.404, -4.642e-9
-0.406, -4.687e-9
-0.408, -4.714e-9
-0.410, -4.739e-9
-0.412, -4.764e-9
-0.414, -4.804e-9
-0.416, -4.829e-9
-0.418, -4.873e-9
-0.420, -4.891e-9
-0.422, -4.928e-9
-0.424, -4.953e-9
-0.426, -4.989e-9
-0.428, -5.011e-9
-0.430, -5.051e-9
-0.432, -5.081e-9
-0.434, -5.113e-9
-0.436, -5.146e-9
-0.438, -5.174e-9
-0.440, -5.218e-9
-0.442, -5.250e-9
-0.444, -5.280e-9
-0.446, -5.315e-9
-0.448, -5.331e-9
-0.450, -5.365e-9
-0.452, -5.391e-9
-0.454, -5.422e-9
-0.456, -5.455e-9
-0.458, -5.482e-9
-0.460, -5.518e-9
-0.462, -5.546e-9
-0.464, -5.582e-9
-0.466, -5.611e-9
-0.468, -5.651e-9
-0.470, -5.693e-9
-0.472, -5.712e-9
-0.474, -5.739e-9
-0.476, -5.771e-9
-0.478, -5.805e-9
-0.480, -5.840e-9
-0.482, -5.868e-9
-0.484, -5.908e-9
-0.486, -5.941e-9
-0.488, -5.970e-9
-0.490, -5.995e-9
-0.492, -6.027e-9
-0.494, -6.040e-9
-0.496, -6.078e-9
-0.498, -6.103e-9
-0.499, -6.113e-9