File: Supplementary Fig 4/Fig S4f Surface CV no cells/CV SURFACE (incubation) (5).txt
Mar. 6, 2025   16:09:51
Cyclic Voltammetry
File: cv surface (incubation) (5).bin
Data Source:  Experiment
Instrument Model:  CHI920C
Ref. Electrode:
Header:
Note:

Init E (V) = -0.5
High E (V) = 0.5
Low E (V) = -0.5
Init P/N = P
Scan Rate (V/s) = 0.05
Segment = 2
Sample Interval (V) = 0.001
Quiet Time (sec) = 10
Sensitivity (A/V) = 1e-7

Results:

Channel 1:
Segment 1:

Segment 2:

Potential/V, Current/A

-0.500, -4.950e-9
-0.498, -4.856e-9
-0.496, -4.777e-9
-0.494, -4.722e-9
-0.492, -4.653e-9
-0.490, -4.594e-9
-0.488, -4.534e-9
-0.486, -4.479e-9
-0.484, -4.422e-9
-0.482, -4.369e-9
-0.480, -4.312e-9
-0.478, -4.262e-9
-0.476, -4.217e-9
-0.474, -4.173e-9
-0.472, -4.118e-9
-0.470, -4.075e-9
-0.468, -4.022e-9
-0.466, -3.982e-9
-0.464, -3.931e-9
-0.462, -3.893e-9
-0.460, -3.842e-9
-0.458, -3.802e-9
-0.456, -3.751e-9
-0.454, -3.713e-9
-0.452, -3.663e-9
-0.450, -3.616e-9
-0.448, -3.569e-9
-0.446, -3.532e-9
-0.444, -3.494e-9
-0.442, -3.458e-9
-0.440, -3.420e-9
-0.438, -3.382e-9
-0.436, -3.342e-9
-0.434, -3.298e-9
-0.432, -3.260e-9
-0.430, -3.216e-9
-0.428, -3.174e-9
-0.426, -3.134e-9
-0.424, -3.101e-9
-0.422, -3.058e-9
-0.420, -3.026e-9
-0.418, -2.991e-9
-0.416, -2.956e-9
-0.414, -2.914e-9
-0.412, -2.881e-9
-0.410, -2.849e-9
-0.408, -2.813e-9
-0.406, -2.779e-9
-0.404, -2.749e-9
-0.402, -2.707e-9
-0.400, -2.679e-9
-0.398, -2.641e-9
-0.396, -2.614e-9
-0.394, -2.578e-9
-0.392, -2.551e-9
-0.390, -2.513e-9
-0.388, -2.485e-9
-0.386, -2.445e-9
-0.384, -2.418e-9
-0.382, -2.389e-9
-0.380, -2.361e-9
-0.378, -2.326e-9
-0.376, -2.296e-9
-0.374, -2.269e-9
-0.372, -2.236e-9
-0.370, -2.210e-9
-0.368, -2.178e-9
-0.366, -2.155e-9
-0.364, -2.120e-9
-0.362, -2.100e-9
-0.360, -2.065e-9
-0.358, -2.045e-9
-0.356, -2.015e-9
-0.354, -1.990e-9
-0.352, -1.959e-9
-0.350, -1.932e-9
-0.348, -1.910e-9
-0.346, -1.883e-9
-0.344, -1.860e-9
-0.342, -1.827e-9
-0.340, -1.810e-9
-0.338, -1.780e-9
-0.336, -1.764e-9
-0.334, -1.728e-9
-0.332, -1.712e-9
-0.330, -1.679e-9
-0.328, -1.663e-9
-0.326, -1.635e-9
-0.324, -1.619e-9
-0.322, -1.591e-9
-0.320, -1.574e-9
-0.318, -1.550e-9
-0.316, -1.532e-9
-0.314, -1.506e-9
-0.312, -1.483e-9
-0.310, -1.457e-9
-0.308, -1.437e-9
-0.306, -1.413e-9
-0.304, -1.394e-9
-0.302, -1.370e-9
-0.300, -1.352e-9
-0.298, -1.329e-9
-0.296, -1.315e-9
-0.294, -1.292e-9
-0.292, -1.281e-9
-0.290, -1.250e-9
-0.288, -1.236e-9
-0.286, -1.207e-9
-0.284, -1.196e-9
-0.282, -1.171e-9
-0.280, -1.158e-9
-0.278, -1.137e-9
-0.276, -1.121e-9
-0.274, -1.104e-9
-0.272, -1.083e-9
-0.270, -1.066e-9
-0.268, -1.047e-9
-0.266, -1.033e-9
-0.264, -1.009e-9
-0.262, -9.948e-10
-0.260, -9.680e-10
-0.258, -9.591e-10
-0.256, -9.362e-10
-0.254, -9.256e-10
-0.252, -9.020e-10
-0.250, -8.921e-10
-0.248, -8.705e-10
-0.246, -8.631e-10
-0.244, -8.388e-10
-0.242, -8.321e-10
-0.240, -8.133e-10
-0.238, -8.055e-10
-0.236, -7.858e-10
-0.234, -7.741e-10
-0.232, -7.534e-10
-0.230, -7.413e-10
-0.228, -7.242e-10
-0.226, -7.106e-10
-0.224, -6.971e-10
-0.222, -6.833e-10
-0.220, -6.705e-10
-0.218, -6.546e-10
-0.216, -6.410e-10
-0.214, -6.263e-10
-0.212, -6.138e-10
-0.210, -5.999e-10
-0.208, -5.890e-10
-0.206, -5.775e-10
-0.204, -5.644e-10
-0.202, -5.518e-10
-0.200, -5.380e-10
-0.198, -5.243e-10
-0.196, -5.089e-10
-0.194, -4.974e-10
-0.192, -4.792e-10
-0.190, -4.702e-10
-0.188, -4.541e-10
-0.186, -4.454e-10
-0.184, -4.316e-10
-0.182, -4.227e-10
-0.180, -4.108e-10
-0.178, -3.967e-10
-0.176, -3.857e-10
-0.174, -3.704e-10
-0.172, -3.621e-10
-0.170, -3.480e-10
-0.168, -3.409e-10
-0.166, -3.268e-10
-0.164, -3.211e-10
-0.162, -3.065e-10
-0.160, -2.960e-10
-0.158, -2.827e-10
-0.156, -2.739e-10
-0.154, -2.573e-10
-0.152, -2.511e-10
-0.150, -2.350e-10
-0.148, -2.288e-10
-0.146, -2.137e-10
-0.144, -2.081e-10
-0.142, -1.939e-10
-0.140, -1.877e-10
-0.138, -1.732e-10
-0.136, -1.667e-10
-0.134, -1.550e-10
-0.132, -1.462e-10
-0.130, -1.345e-10
-0.128, -1.254e-10
-0.126, -1.171e-10
-0.124, -1.057e-10
-0.122, -9.832e-11
-0.120, -8.935e-11
-0.118, -8.038e-11
-0.116, -7.122e-11
-0.114, -6.157e-11
-0.112, -5.075e-11
-0.110, -4.178e-11
-0.108, -2.696e-11
-0.106, -1.985e-11
-0.104, -8.149e-12
-0.102, 6.239e-13
-0.100, 1.505e-11
-0.098, 1.798e-11
-0.096, 3.445e-11
-0.094, 3.845e-11
-0.092, 5.034e-11
-0.090, 5.385e-11
-0.088, 6.486e-11
-0.086, 6.945e-11
-0.084, 8.231e-11
-0.082, 8.836e-11
-0.080, 9.820e-11
-0.078, 1.041e-10
-0.076, 1.145e-10
-0.074, 1.182e-10
-0.072, 1.299e-10
-0.070, 1.329e-10
-0.068, 1.425e-10
-0.066, 1.467e-10
-0.064, 1.579e-10
-0.062, 1.610e-10
-0.060, 1.729e-10
-0.058, 1.770e-10
-0.056, 1.858e-10
-0.054, 1.932e-10
-0.052, 2.020e-10
-0.050, 2.088e-10
-0.048, 2.183e-10
-0.046, 2.236e-10
-0.044, 2.327e-10
-0.042, 2.387e-10
-0.040, 2.518e-10
-0.038, 2.560e-10
-0.036, 2.663e-10
-0.034, 2.740e-10
-0.032, 2.822e-10
-0.030, 2.876e-10
-0.028, 2.945e-10
-0.026, 2.986e-10
-0.024, 3.042e-10
-0.022, 3.108e-10
-0.020, 3.171e-10
-0.018, 3.256e-10
-0.016, 3.397e-10
-0.014, 3.625e-10
-0.012, 3.618e-10
-0.010, 3.731e-10
-0.008, 3.673e-10
-0.006, 3.871e-10
-0.004, 3.685e-10
-0.002, 3.734e-10
0.000, 3.712e-10
0.002, 3.839e-10
0.004, 3.848e-10
0.006, 3.968e-10
0.008, 3.955e-10
0.010, 4.040e-10
0.012, 4.130e-10
0.014, 4.151e-10
0.016, 4.250e-10
0.018, 4.265e-10
0.020, 4.365e-10
0.022, 4.449e-10
0.024, 4.579e-10
0.026, 4.562e-10
0.028, 4.696e-10
0.030, 4.670e-10
0.032, 4.741e-10
0.034, 4.745e-10
0.036, 4.833e-10
0.038, 4.948e-10
0.040, 4.979e-10
0.042, 4.992e-10
0.044, 5.120e-10
0.046, 5.204e-10
0.048, 5.154e-10
0.050, 5.256e-10
0.052, 5.371e-10
0.054, 5.417e-10
0.056, 5.517e-10
0.058, 5.454e-10
0.060, 5.477e-10
0.062, 5.491e-10
0.064, 5.614e-10
0.066, 5.578e-10
0.068, 5.701e-10
0.070, 5.712e-10
0.072, 5.856e-10
0.074, 5.875e-10
0.076, 5.948e-10
0.078, 5.901e-10
0.080, 5.953e-10
0.082, 6.106e-10
0.084, 6.162e-10
0.086, 6.222e-10
0.088, 6.295e-10
0.090, 6.450e-10
0.092, 6.518e-10
0.094, 6.651e-10
0.096, 6.783e-10
0.098, 7.060e-10
0.100, 7.324e-10
0.102, 7.530e-10
0.104, 7.801e-10
0.106, 8.109e-10
0.108, 8.194e-10
0.110, 8.436e-10
0.112, 8.510e-10
0.114, 8.572e-10
0.116, 8.596e-10
0.118, 8.679e-10
0.120, 8.739e-10
0.122, 8.938e-10
0.124, 9.330e-10
0.126, 9.403e-10
0.128, 9.359e-10
0.130, 9.540e-10
0.132, 9.722e-10
0.134, 9.978e-10
0.136, 1.015e-9
0.138, 1.018e-9
0.140, 1.024e-9
0.142, 1.027e-9
0.144, 1.038e-9
0.146, 1.033e-9
0.148, 1.049e-9
0.150, 1.038e-9
0.152, 1.057e-9
0.154, 1.054e-9
0.156, 1.067e-9
0.158, 1.072e-9
0.160, 1.084e-9
0.162, 1.090e-9
0.164, 1.104e-9
0.166, 1.118e-9
0.168, 1.114e-9
0.170, 1.134e-9
0.172, 1.129e-9
0.174, 1.137e-9
0.176, 1.132e-9
0.178, 1.142e-9
0.180, 1.143e-9
0.182, 1.151e-9
0.184, 1.169e-9
0.186, 1.173e-9
0.188, 1.179e-9
0.190, 1.193e-9
0.192, 1.198e-9
0.194, 1.210e-9
0.196, 1.235e-9
0.198, 1.236e-9
0.200, 1.267e-9
0.202, 1.270e-9
0.204, 1.285e-9
0.206, 1.281e-9
0.208, 1.286e-9
0.210, 1.292e-9
0.212, 1.309e-9
0.214, 1.313e-9
0.216, 1.317e-9
0.218, 1.324e-9
0.220, 1.334e-9
0.222, 1.352e-9
0.224, 1.375e-9
0.226, 1.378e-9
0.228, 1.383e-9
0.230, 1.396e-9
0.232, 1.410e-9
0.234, 1.418e-9
0.236, 1.422e-9
0.238, 1.428e-9
0.240, 1.436e-9
0.242, 1.436e-9
0.244, 1.441e-9
0.246, 1.473e-9
0.248, 1.473e-9
0.250, 1.486e-9
0.252, 1.486e-9
0.254, 1.493e-9
0.256, 1.498e-9
0.258, 1.509e-9
0.260, 1.517e-9
0.262, 1.533e-9
0.264, 1.539e-9
0.266, 1.563e-9
0.268, 1.568e-9
0.270, 1.588e-9
0.272, 1.598e-9
0.274, 1.611e-9
0.276, 1.616e-9
0.278, 1.636e-9
0.280, 1.647e-9
0.282, 1.656e-9
0.284, 1.669e-9
0.286, 1.682e-9
0.288, 1.687e-9
0.290, 1.708e-9
0.292, 1.718e-9
0.294, 1.730e-9
0.296, 1.748e-9
0.298, 1.758e-9
0.300, 1.789e-9
0.302, 1.795e-9
0.304, 1.808e-9
0.306, 1.813e-9
0.308, 1.844e-9
0.310, 1.836e-9
0.312, 1.862e-9
0.314, 1.870e-9
0.316, 1.895e-9
0.318, 1.895e-9
0.320, 1.911e-9
0.322, 1.910e-9
0.324, 1.930e-9
0.326, 1.940e-9
0.328, 1.951e-9
0.330, 1.958e-9
0.332, 1.973e-9
0.334, 1.978e-9
0.336, 1.982e-9
0.338, 1.997e-9
0.340, 2.005e-9
0.342, 2.030e-9
0.344, 2.031e-9
0.346, 2.052e-9
0.348, 2.063e-9
0.350, 2.080e-9
0.352, 2.092e-9
0.354, 2.106e-9
0.356, 2.112e-9
0.358, 2.122e-9
0.360, 2.132e-9
0.362, 2.134e-9
0.364, 2.159e-9
0.366, 2.174e-9
0.368, 2.187e-9
0.370, 2.192e-9
0.372, 2.210e-9
0.374, 2.217e-9
0.376, 2.232e-9
0.378, 2.237e-9
0.380, 2.253e-9
0.382, 2.263e-9
0.384, 2.272e-9
0.386, 2.277e-9
0.388, 2.292e-9
0.390, 2.301e-9
0.392, 2.312e-9
0.394, 2.326e-9
0.396, 2.334e-9
0.398, 2.356e-9
0.400, 2.363e-9
0.402, 2.385e-9
0.404, 2.385e-9
0.406, 2.397e-9
0.408, 2.403e-9
0.410, 2.413e-9
0.412, 2.427e-9
0.414, 2.444e-9
0.416, 2.450e-9
0.418, 2.467e-9
0.420, 2.477e-9
0.422, 2.491e-9
0.424, 2.500e-9
0.426, 2.502e-9
0.428, 2.522e-9
0.430, 2.529e-9
0.432, 2.545e-9
0.434, 2.539e-9
0.436, 2.558e-9
0.438, 2.551e-9
0.440, 2.572e-9
0.442, 2.578e-9
0.444, 2.595e-9
0.446, 2.600e-9
0.448, 2.614e-9
0.450, 2.622e-9
0.452, 2.638e-9
0.454, 2.644e-9
0.456, 2.644e-9
0.458, 2.661e-9
0.460, 2.688e-9
0.462, 2.706e-9
0.464, 2.704e-9
0.466, 2.722e-9
0.468, 2.730e-9
0.470, 2.746e-9
0.472, 2.751e-9
0.474, 2.766e-9
0.476, 2.772e-9
0.478, 2.785e-9
0.480, 2.794e-9
0.482, 2.807e-9
0.484, 2.814e-9
0.486, 2.831e-9
0.488, 2.838e-9
0.490, 2.844e-9
0.492, 2.855e-9
0.494, 2.863e-9
0.496, 2.888e-9
0.498, 2.895e-9
0.500, 2.879e-9
0.498, 2.741e-9
0.496, 2.653e-9
0.494, 2.587e-9
0.492, 2.532e-9
0.490, 2.472e-9
0.488, 2.423e-9
0.486, 2.372e-9
0.484, 2.333e-9
0.482, 2.297e-9
0.480, 2.258e-9
0.478, 2.225e-9
0.476, 2.188e-9
0.474, 2.163e-9
0.472, 2.125e-9
0.470, 2.102e-9
0.468, 2.071e-9
0.466, 2.049e-9
0.464, 2.020e-9
0.462, 1.997e-9
0.460, 1.975e-9
0.458, 1.952e-9
0.456, 1.920e-9
0.454, 1.900e-9
0.452, 1.874e-9
0.450, 1.853e-9
0.448, 1.835e-9
0.446, 1.811e-9
0.444, 1.786e-9
0.442, 1.764e-9
0.440, 1.742e-9
0.438, 1.721e-9
0.436, 1.697e-9
0.434, 1.680e-9
0.432, 1.661e-9
0.430, 1.644e-9
0.428, 1.625e-9
0.426, 1.610e-9
0.424, 1.587e-9
0.422, 1.575e-9
0.420, 1.553e-9
0.418, 1.537e-9
0.416, 1.515e-9
0.414, 1.499e-9
0.412, 1.481e-9
0.410, 1.463e-9
0.408, 1.449e-9
0.406, 1.424e-9
0.404, 1.411e-9
0.402, 1.384e-9
0.400, 1.374e-9
0.398, 1.348e-9
0.396, 1.339e-9
0.394, 1.314e-9
0.392, 1.304e-9
0.390, 1.281e-9
0.388, 1.268e-9
0.386, 1.246e-9
0.384, 1.233e-9
0.382, 1.213e-9
0.380, 1.195e-9
0.378, 1.177e-9
0.376, 1.156e-9
0.374, 1.146e-9
0.372, 1.129e-9
0.370, 1.119e-9
0.368, 1.101e-9
0.366, 1.086e-9
0.364, 1.068e-9
0.362, 1.056e-9
0.360, 1.039e-9
0.358, 1.027e-9
0.356, 1.008e-9
0.354, 9.928e-10
0.352, 9.805e-10
0.350, 9.631e-10
0.348, 9.513e-10
0.346, 9.323e-10
0.344, 9.200e-10
0.342, 9.038e-10
0.340, 8.912e-10
0.338, 8.744e-10
0.336, 8.612e-10
0.334, 8.466e-10
0.332, 8.344e-10
0.330, 8.210e-10
0.328, 8.048e-10
0.326, 7.943e-10
0.324, 7.772e-10
0.322, 7.688e-10
0.320, 7.531e-10
0.318, 7.465e-10
0.316, 7.286e-10
0.314, 7.203e-10
0.312, 7.024e-10
0.310, 6.943e-10
0.308, 6.781e-10
0.306, 6.678e-10
0.304, 6.523e-10
0.302, 6.431e-10
0.300, 6.326e-10
0.298, 6.198e-10
0.296, 6.084e-10
0.294, 5.947e-10
0.292, 5.851e-10
0.290, 5.703e-10
0.288, 5.647e-10
0.286, 5.475e-10
0.284, 5.402e-10
0.282, 5.253e-10
0.280, 5.208e-10
0.278, 5.043e-10
0.276, 4.944e-10
0.274, 4.781e-10
0.272, 4.698e-10
0.270, 4.549e-10
0.268, 4.457e-10
0.266, 4.310e-10
0.264, 4.215e-10
0.262, 4.102e-10
0.260, 4.005e-10
0.258, 3.899e-10
0.256, 3.828e-10
0.254, 3.717e-10
0.252, 3.635e-10
0.250, 3.524e-10
0.248, 3.436e-10
0.246, 3.331e-10
0.244, 3.236e-10
0.242, 3.140e-10
0.240, 3.049e-10
0.238, 2.961e-10
0.236, 2.859e-10
0.234, 2.769e-10
0.232, 2.659e-10
0.230, 2.569e-10
0.228, 2.475e-10
0.226, 2.394e-10
0.224, 2.285e-10
0.222, 2.199e-10
0.220, 2.078e-10
0.218, 1.996e-10
0.216, 1.862e-10
0.214, 1.801e-10
0.212, 1.681e-10
0.210, 1.633e-10
0.208, 1.517e-10
0.206, 1.471e-10
0.204, 1.365e-10
0.202, 1.315e-10
0.200, 1.204e-10
0.198, 1.139e-10
0.196, 1.045e-10
0.194, 9.694e-11
0.192, 8.729e-11
0.190, 7.968e-11
0.188, 7.062e-11
0.186, 6.418e-11
0.184, 5.443e-11
0.182, 4.800e-11
0.180, 3.737e-11
0.178, 3.289e-11
0.176, 1.876e-11
0.174, 1.515e-11
0.172, 2.671e-12
0.170, -2.301e-12
0.168, -1.536e-11
0.166, -2.043e-11
0.164, -3.174e-11
0.162, -3.964e-11
0.160, -4.743e-11
0.158, -5.679e-11
0.156, -6.381e-11
0.154, -7.366e-11
0.152, -8.077e-11
0.150, -9.042e-11
0.148, -9.423e-11
0.146, -1.054e-10
0.144, -1.094e-10
0.142, -1.191e-10
0.140, -1.238e-10
0.138, -1.334e-10
0.136, -1.375e-10
0.134, -1.489e-10
0.132, -1.546e-10
0.130, -1.668e-10
0.128, -1.699e-10
0.126, -1.795e-10
0.124, -1.850e-10
0.122, -1.948e-10
0.120, -2.017e-10
0.118, -2.096e-10
0.116, -2.158e-10
0.114, -2.233e-10
0.112, -2.319e-10
0.110, -2.415e-10
0.108, -2.458e-10
0.106, -2.596e-10
0.104, -2.596e-10
0.102, -2.786e-10
0.100, -2.798e-10
0.098, -2.962e-10
0.096, -2.946e-10
0.094, -3.108e-10
0.092, -3.081e-10
0.090, -3.240e-10
0.088, -3.237e-10
0.086, -3.392e-10
0.084, -3.396e-10
0.082, -3.516e-10
0.080, -3.535e-10
0.078, -3.634e-10
0.076, -3.687e-10
0.074, -3.756e-10
0.072, -3.855e-10
0.070, -3.893e-10
0.068, -4.028e-10
0.066, -4.046e-10
0.064, -4.218e-10
0.062, -4.205e-10
0.060, -4.368e-10
0.058, -4.358e-10
0.056, -4.524e-10
0.054, -4.533e-10
0.052, -4.682e-10
0.050, -4.695e-10
0.048, -4.843e-10
0.046, -4.891e-10
0.044, -5.021e-10
0.042, -5.075e-10
0.040, -5.209e-10
0.038, -5.274e-10
0.036, -5.408e-10
0.034, -5.473e-10
0.032, -5.594e-10
0.030, -5.656e-10
0.028, -5.751e-10
0.026, -5.831e-10
0.024, -5.926e-10
0.022, -5.995e-10
0.020, -6.112e-10
0.018, -6.190e-10
0.016, -6.296e-10
0.014, -6.376e-10
0.012, -6.478e-10
0.010, -6.582e-10
0.008, -6.663e-10
0.006, -6.783e-10
0.004, -6.857e-10
0.002, -6.986e-10
-0.000, -7.056e-10
-0.002, -7.208e-10
-0.004, -7.270e-10
-0.006, -7.419e-10
-0.008, -7.499e-10
-0.010, -7.648e-10
-0.012, -7.749e-10
-0.014, -7.886e-10
-0.016, -7.977e-10
-0.018, -8.090e-10
-0.020, -8.186e-10
-0.022, -8.290e-10
-0.024, -8.404e-10
-0.026, -8.499e-10
-0.028, -8.630e-10
-0.030, -8.733e-10
-0.032, -8.868e-10
-0.034, -8.966e-10
-0.036, -9.125e-10
-0.038, -9.212e-10
-0.040, -9.387e-10
-0.042, -9.485e-10
-0.044, -9.631e-10
-0.046, -9.744e-10
-0.048, -9.913e-10
-0.050, -1.004e-9
-0.052, -1.020e-9
-0.054, -1.035e-9
-0.056, -1.048e-9
-0.058, -1.064e-9
-0.060, -1.076e-9
-0.062, -1.093e-9
-0.064, -1.102e-9
-0.066, -1.118e-9
-0.068, -1.132e-9
-0.070, -1.147e-9
-0.072, -1.164e-9
-0.074, -1.175e-9
-0.076, -1.197e-9
-0.078, -1.206e-9
-0.080, -1.234e-9
-0.082, -1.240e-9
-0.084, -1.272e-9
-0.086, -1.275e-9
-0.088, -1.304e-9
-0.090, -1.306e-9
-0.092, -1.332e-9
-0.094, -1.340e-9
-0.096, -1.363e-9
-0.098, -1.374e-9
-0.100, -1.394e-9
-0.102, -1.415e-9
-0.104, -1.429e-9
-0.106, -1.451e-9
-0.108, -1.465e-9
-0.110, -1.495e-9
-0.112, -1.503e-9
-0.114, -1.533e-9
-0.116, -1.543e-9
-0.118, -1.569e-9
-0.120, -1.580e-9
-0.122, -1.605e-9
-0.124, -1.619e-9
-0.126, -1.643e-9
-0.128, -1.658e-9
-0.130, -1.677e-9
-0.132, -1.697e-9
-0.134, -1.715e-9
-0.136, -1.737e-9
-0.138, -1.757e-9
-0.140, -1.780e-9
-0.142, -1.797e-9
-0.144, -1.818e-9
-0.146, -1.841e-9
-0.148, -1.862e-9
-0.150, -1.887e-9
-0.152, -1.903e-9
-0.154, -1.927e-9
-0.156, -1.942e-9
-0.158, -1.969e-9
-0.160, -1.986e-9
-0.162, -2.013e-9
-0.164, -2.031e-9
-0.166, -2.054e-9
-0.168, -2.073e-9
-0.170, -2.099e-9
-0.172, -2.123e-9
-0.174, -2.143e-9
-0.176, -2.166e-9
-0.178, -2.184e-9
-0.180, -2.213e-9
-0.182, -2.232e-9
-0.184, -2.260e-9
-0.186, -2.276e-9
-0.188, -2.302e-9
-0.190, -2.320e-9
-0.192, -2.350e-9
-0.194, -2.368e-9
-0.196, -2.394e-9
-0.198, -2.414e-9
-0.200, -2.439e-9
-0.202, -2.462e-9
-0.204, -2.488e-9
-0.206, -2.509e-9
-0.208, -2.531e-9
-0.210, -2.553e-9
-0.212, -2.576e-9
-0.214, -2.601e-9
-0.216, -2.624e-9
-0.218, -2.645e-9
-0.220, -2.666e-9
-0.222, -2.690e-9
-0.224, -2.715e-9
-0.226, -2.738e-9
-0.228, -2.763e-9
-0.230, -2.780e-9
-0.232, -2.805e-9
-0.234, -2.827e-9
-0.236, -2.856e-9
-0.238, -2.875e-9
-0.240, -2.900e-9
-0.242, -2.921e-9
-0.244, -2.948e-9
-0.246, -2.970e-9
-0.248, -2.996e-9
-0.250, -3.016e-9
-0.252, -3.038e-9
-0.254, -3.066e-9
-0.256, -3.085e-9
-0.258, -3.108e-9
-0.260, -3.131e-9
-0.262, -3.160e-9
-0.264, -3.180e-9
-0.266, -3.210e-9
-0.268, -3.232e-9
-0.270, -3.259e-9
-0.272, -3.279e-9
-0.274, -3.308e-9
-0.276, -3.328e-9
-0.278, -3.354e-9
-0.280, -3.380e-9
-0.282, -3.401e-9
-0.284, -3.428e-9
-0.286, -3.454e-9
-0.288, -3.475e-9
-0.290, -3.496e-9
-0.292, -3.515e-9
-0.294, -3.539e-9
-0.296, -3.563e-9
-0.298, -3.590e-9
-0.300, -3.616e-9
-0.302, -3.644e-9
-0.304, -3.668e-9
-0.306, -3.696e-9
-0.308, -3.720e-9
-0.310, -3.742e-9
-0.312, -3.761e-9
-0.314, -3.792e-9
-0.316, -3.812e-9
-0.318, -3.843e-9
-0.320, -3.861e-9
-0.322, -3.896e-9
-0.324, -3.912e-9
-0.326, -3.944e-9
-0.328, -3.973e-9
-0.330, -3.993e-9
-0.332, -4.018e-9
-0.334, -4.041e-9
-0.336, -4.070e-9
-0.338, -4.090e-9
-0.340, -4.123e-9
-0.342, -4.147e-9
-0.344, -4.178e-9
-0.346, -4.200e-9
-0.348, -4.227e-9
-0.350, -4.249e-9
-0.352, -4.282e-9
-0.354, -4.301e-9
-0.356, -4.339e-9
-0.358, -4.366e-9
-0.360, -4.395e-9
-0.362, -4.423e-9
-0.364, -4.456e-9
-0.366, -4.483e-9
-0.368, -4.509e-9
-0.370, -4.543e-9
-0.372, -4.575e-9
-0.374, -4.611e-9
-0.376, -4.642e-9
-0.378, -4.677e-9
-0.380, -4.706e-9
-0.382, -4.727e-9
-0.384, -4.756e-9
-0.386, -4.787e-9
-0.388, -4.819e-9
-0.390, -4.846e-9
-0.392, -4.895e-9
-0.394, -4.923e-9
-0.396, -4.957e-9
-0.398, -4.982e-9
-0.400, -5.011e-9
-0.402, -5.043e-9
-0.404, -5.078e-9
-0.406, -5.113e-9
-0.408, -5.142e-9
-0.410, -5.181e-9
-0.412, -5.201e-9
-0.414, -5.241e-9
-0.416, -5.270e-9
-0.418, -5.301e-9
-0.420, -5.320e-9
-0.422, -5.357e-9
-0.424, -5.386e-9
-0.426, -5.417e-9
-0.428, -5.445e-9
-0.430, -5.482e-9
-0.432, -5.501e-9
-0.434, -5.535e-9
-0.436, -5.568e-9
-0.438, -5.594e-9
-0.440, -5.623e-9
-0.442, -5.655e-9
-0.444, -5.689e-9
-0.446, -5.713e-9
-0.448, -5.745e-9
-0.450, -5.772e-9
-0.452, -5.805e-9
-0.454, -5.832e-9
-0.456, -5.862e-9
-0.458, -5.892e-9
-0.460, -5.920e-9
-0.462, -5.947e-9
-0.464, -5.984e-9
-0.466, -6.018e-9
-0.468, -6.047e-9
-0.470, -6.076e-9
-0.472, -6.113e-9
-0.474, -6.151e-9
-0.476, -6.178e-9
-0.478, -6.204e-9
-0.480, -6.231e-9
-0.482, -6.261e-9
-0.484, -6.293e-9
-0.486, -6.318e-9
-0.488, -6.342e-9
-0.490, -6.372e-9
-0.492, -6.410e-9
-0.494, -6.433e-9
-0.496, -6.454e-9
-0.498, -6.478e-9
-0.499, -6.500e-9