File: Supplementary Fig 4/Fig S4f Surface CV no cells/CV SURFACE (incubation) (2).txt
Mar. 6, 2025   16:06:29
Cyclic Voltammetry
File: cv surface (incubation) (2).bin
Data Source:  Experiment
Instrument Model:  CHI920C
Ref. Electrode:
Header:
Note:

Init E (V) = -0.5
High E (V) = 0.5
Low E (V) = -0.5
Init P/N = P
Scan Rate (V/s) = 0.05
Segment = 2
Sample Interval (V) = 0.001
Quiet Time (sec) = 10
Sensitivity (A/V) = 1e-7

Results:

Channel 1:
Segment 1:

Segment 2:

Potential/V, Current/A

-0.500, -5.202e-9
-0.498, -5.098e-9
-0.496, -5.021e-9
-0.494, -4.955e-9
-0.492, -4.890e-9
-0.490, -4.829e-9
-0.488, -4.771e-9
-0.486, -4.720e-9
-0.484, -4.668e-9
-0.482, -4.606e-9
-0.480, -4.551e-9
-0.478, -4.498e-9
-0.476, -4.451e-9
-0.474, -4.400e-9
-0.472, -4.351e-9
-0.470, -4.303e-9
-0.468, -4.257e-9
-0.466, -4.218e-9
-0.464, -4.169e-9
-0.462, -4.124e-9
-0.460, -4.074e-9
-0.458, -4.028e-9
-0.456, -3.983e-9
-0.454, -3.943e-9
-0.452, -3.895e-9
-0.450, -3.855e-9
-0.448, -3.809e-9
-0.446, -3.769e-9
-0.444, -3.730e-9
-0.442, -3.688e-9
-0.440, -3.645e-9
-0.438, -3.603e-9
-0.436, -3.562e-9
-0.434, -3.523e-9
-0.432, -3.490e-9
-0.430, -3.451e-9
-0.428, -3.412e-9
-0.426, -3.372e-9
-0.424, -3.331e-9
-0.422, -3.291e-9
-0.420, -3.254e-9
-0.418, -3.218e-9
-0.416, -3.178e-9
-0.414, -3.145e-9
-0.412, -3.106e-9
-0.410, -3.069e-9
-0.408, -3.030e-9
-0.406, -2.996e-9
-0.404, -2.958e-9
-0.402, -2.923e-9
-0.400, -2.890e-9
-0.398, -2.852e-9
-0.396, -2.823e-9
-0.394, -2.783e-9
-0.392, -2.757e-9
-0.390, -2.714e-9
-0.388, -2.683e-9
-0.386, -2.646e-9
-0.384, -2.623e-9
-0.382, -2.582e-9
-0.380, -2.558e-9
-0.378, -2.516e-9
-0.376, -2.491e-9
-0.374, -2.452e-9
-0.372, -2.428e-9
-0.370, -2.389e-9
-0.368, -2.365e-9
-0.366, -2.325e-9
-0.364, -2.299e-9
-0.362, -2.268e-9
-0.360, -2.242e-9
-0.358, -2.207e-9
-0.356, -2.179e-9
-0.354, -2.150e-9
-0.352, -2.121e-9
-0.350, -2.092e-9
-0.348, -2.063e-9
-0.346, -2.034e-9
-0.344, -2.008e-9
-0.342, -1.979e-9
-0.340, -1.948e-9
-0.338, -1.922e-9
-0.336, -1.895e-9
-0.334, -1.867e-9
-0.332, -1.839e-9
-0.330, -1.813e-9
-0.328, -1.788e-9
-0.326, -1.764e-9
-0.324, -1.737e-9
-0.322, -1.709e-9
-0.320, -1.687e-9
-0.318, -1.661e-9
-0.316, -1.639e-9
-0.314, -1.615e-9
-0.312, -1.592e-9
-0.310, -1.567e-9
-0.308, -1.545e-9
-0.306, -1.521e-9
-0.304, -1.495e-9
-0.302, -1.472e-9
-0.300, -1.445e-9
-0.298, -1.426e-9
-0.296, -1.398e-9
-0.294, -1.383e-9
-0.292, -1.353e-9
-0.290, -1.340e-9
-0.288, -1.311e-9
-0.286, -1.299e-9
-0.284, -1.270e-9
-0.282, -1.256e-9
-0.280, -1.224e-9
-0.278, -1.208e-9
-0.276, -1.182e-9
-0.274, -1.164e-9
-0.272, -1.144e-9
-0.270, -1.123e-9
-0.268, -1.107e-9
-0.266, -1.082e-9
-0.264, -1.069e-9
-0.262, -1.046e-9
-0.260, -1.030e-9
-0.258, -1.004e-9
-0.256, -9.863e-10
-0.254, -9.625e-10
-0.252, -9.493e-10
-0.250, -9.287e-10
-0.248, -9.138e-10
-0.246, -8.923e-10
-0.244, -8.759e-10
-0.242, -8.578e-10
-0.240, -8.404e-10
-0.238, -8.248e-10
-0.236, -8.077e-10
-0.234, -7.923e-10
-0.232, -7.759e-10
-0.230, -7.590e-10
-0.228, -7.379e-10
-0.226, -7.207e-10
-0.224, -7.035e-10
-0.222, -6.889e-10
-0.220, -6.724e-10
-0.218, -6.555e-10
-0.216, -6.412e-10
-0.214, -6.252e-10
-0.212, -6.073e-10
-0.210, -5.909e-10
-0.208, -5.771e-10
-0.206, -5.620e-10
-0.204, -5.479e-10
-0.202, -5.318e-10
-0.200, -5.136e-10
-0.198, -4.950e-10
-0.196, -4.786e-10
-0.194, -4.650e-10
-0.192, -4.482e-10
-0.190, -4.356e-10
-0.188, -4.204e-10
-0.186, -4.056e-10
-0.184, -3.913e-10
-0.182, -3.787e-10
-0.180, -3.617e-10
-0.178, -3.512e-10
-0.176, -3.358e-10
-0.174, -3.249e-10
-0.172, -3.104e-10
-0.170, -2.986e-10
-0.168, -2.831e-10
-0.166, -2.713e-10
-0.164, -2.530e-10
-0.162, -2.255e-10
-0.160, -2.244e-10
-0.158, -2.119e-10
-0.156, -2.006e-10
-0.154, -1.880e-10
-0.152, -1.747e-10
-0.150, -1.631e-10
-0.148, -1.449e-10
-0.146, -1.393e-10
-0.144, -1.188e-10
-0.142, -1.130e-10
-0.140, -9.588e-11
-0.138, -8.350e-11
-0.136, -7.882e-11
-0.134, -5.367e-11
-0.132, -5.894e-11
-0.130, -2.297e-11
-0.128, -3.691e-11
-0.126, 1.018e-11
-0.124, -1.166e-11
-0.122, 3.279e-11
-0.120, 1.534e-11
-0.118, 5.170e-11
-0.116, 4.069e-11
-0.114, 7.227e-11
-0.112, 6.740e-11
-0.110, 8.670e-11
-0.108, 9.440e-11
-0.106, 1.084e-10
-0.104, 1.210e-10
-0.102, 1.315e-10
-0.100, 1.455e-10
-0.098, 1.497e-10
-0.096, 1.648e-10
-0.094, 1.687e-10
-0.092, 1.858e-10
-0.090, 1.895e-10
-0.088, 2.011e-10
-0.086, 2.142e-10
-0.084, 2.240e-10
-0.082, 2.413e-10
-0.080, 2.464e-10
-0.078, 2.630e-10
-0.076, 2.646e-10
-0.074, 2.851e-10
-0.072, 2.841e-10
-0.070, 3.044e-10
-0.068, 3.071e-10
-0.066, 3.225e-10
-0.064, 3.269e-10
-0.062, 3.408e-10
-0.060, 3.496e-10
-0.058, 3.612e-10
-0.056, 3.717e-10
-0.054, 3.767e-10
-0.052, 3.892e-10
-0.050, 3.926e-10
-0.048, 4.074e-10
-0.046, 4.117e-10
-0.044, 4.257e-10
-0.042, 4.301e-10
-0.040, 4.460e-10
-0.038, 4.505e-10
-0.036, 4.667e-10
-0.034, 4.727e-10
-0.032, 4.882e-10
-0.030, 4.963e-10
-0.028, 5.053e-10
-0.026, 5.165e-10
-0.024, 5.229e-10
-0.022, 5.349e-10
-0.020, 5.389e-10
-0.018, 5.551e-10
-0.016, 5.568e-10
-0.014, 5.706e-10
-0.012, 5.752e-10
-0.010, 5.881e-10
-0.008, 5.950e-10
-0.006, 6.036e-10
-0.004, 6.113e-10
-0.002, 6.175e-10
0.000, 6.260e-10
0.002, 6.299e-10
0.004, 6.453e-10
0.006, 6.452e-10
0.008, 6.583e-10
0.010, 6.571e-10
0.012, 6.738e-10
0.014, 6.748e-10
0.016, 6.905e-10
0.018, 6.925e-10
0.020, 7.053e-10
0.022, 7.119e-10
0.024, 7.180e-10
0.026, 7.278e-10
0.028, 7.289e-10
0.030, 7.471e-10
0.032, 7.449e-10
0.034, 7.618e-10
0.036, 7.579e-10
0.038, 7.753e-10
0.040, 7.709e-10
0.042, 7.937e-10
0.044, 7.908e-10
0.046, 8.100e-10
0.048, 8.097e-10
0.050, 8.235e-10
0.052, 8.238e-10
0.054, 8.319e-10
0.056, 8.383e-10
0.058, 8.465e-10
0.060, 8.506e-10
0.062, 8.566e-10
0.064, 8.637e-10
0.066, 8.663e-10
0.068, 8.768e-10
0.070, 8.795e-10
0.072, 8.902e-10
0.074, 8.907e-10
0.076, 9.080e-10
0.078, 9.120e-10
0.080, 9.245e-10
0.082, 9.234e-10
0.084, 9.364e-10
0.086, 9.387e-10
0.088, 9.464e-10
0.090, 9.517e-10
0.092, 9.619e-10
0.094, 9.704e-10
0.096, 9.751e-10
0.098, 9.880e-10
0.100, 9.874e-10
0.102, 9.980e-10
0.104, 1.001e-9
0.106, 1.003e-9
0.108, 1.012e-9
0.110, 1.019e-9
0.112, 1.024e-9
0.114, 1.027e-9
0.116, 1.036e-9
0.118, 1.040e-9
0.120, 1.049e-9
0.122, 1.054e-9
0.124, 1.066e-9
0.126, 1.066e-9
0.128, 1.073e-9
0.130, 1.078e-9
0.132, 1.083e-9
0.134, 1.093e-9
0.136, 1.101e-9
0.138, 1.102e-9
0.140, 1.112e-9
0.142, 1.117e-9
0.144, 1.122e-9
0.146, 1.128e-9
0.148, 1.133e-9
0.150, 1.142e-9
0.152, 1.145e-9
0.154, 1.152e-9
0.156, 1.159e-9
0.158, 1.170e-9
0.160, 1.173e-9
0.162, 1.186e-9
0.164, 1.195e-9
0.166, 1.200e-9
0.168, 1.208e-9
0.170, 1.216e-9
0.172, 1.223e-9
0.174, 1.233e-9
0.176, 1.240e-9
0.178, 1.256e-9
0.180, 1.257e-9
0.182, 1.265e-9
0.184, 1.267e-9
0.186, 1.283e-9
0.188, 1.291e-9
0.190, 1.303e-9
0.192, 1.305e-9
0.194, 1.322e-9
0.196, 1.327e-9
0.198, 1.339e-9
0.200, 1.346e-9
0.202, 1.356e-9
0.204, 1.370e-9
0.206, 1.373e-9
0.208, 1.385e-9
0.210, 1.391e-9
0.212, 1.410e-9
0.214, 1.417e-9
0.216, 1.431e-9
0.218, 1.442e-9
0.220, 1.450e-9
0.222, 1.460e-9
0.224, 1.465e-9
0.226, 1.485e-9
0.228, 1.491e-9
0.230, 1.500e-9
0.232, 1.510e-9
0.234, 1.522e-9
0.236, 1.531e-9
0.238, 1.547e-9
0.240, 1.551e-9
0.242, 1.564e-9
0.244, 1.572e-9
0.246, 1.584e-9
0.248, 1.593e-9
0.250, 1.603e-9
0.252, 1.615e-9
0.254, 1.621e-9
0.256, 1.635e-9
0.258, 1.645e-9
0.260, 1.663e-9
0.262, 1.676e-9
0.264, 1.701e-9
0.266, 1.696e-9
0.268, 1.717e-9
0.270, 1.715e-9
0.272, 1.734e-9
0.274, 1.737e-9
0.276, 1.755e-9
0.278, 1.755e-9
0.280, 1.770e-9
0.282, 1.774e-9
0.284, 1.788e-9
0.286, 1.799e-9
0.288, 1.809e-9
0.290, 1.830e-9
0.292, 1.833e-9
0.294, 1.851e-9
0.296, 1.853e-9
0.298, 1.874e-9
0.300, 1.881e-9
0.302, 1.903e-9
0.304, 1.913e-9
0.306, 1.930e-9
0.308, 1.941e-9
0.310, 1.962e-9
0.312, 1.967e-9
0.314, 1.982e-9
0.316, 1.991e-9
0.318, 2.009e-9
0.320, 2.012e-9
0.322, 2.036e-9
0.324, 2.041e-9
0.326, 2.058e-9
0.328, 2.063e-9
0.330, 2.077e-9
0.332, 2.085e-9
0.334, 2.096e-9
0.336, 2.102e-9
0.338, 2.113e-9
0.340, 2.124e-9
0.342, 2.137e-9
0.344, 2.155e-9
0.346, 2.166e-9
0.348, 2.185e-9
0.350, 2.193e-9
0.352, 2.200e-9
0.354, 2.208e-9
0.356, 2.218e-9
0.358, 2.228e-9
0.360, 2.231e-9
0.362, 2.245e-9
0.364, 2.253e-9
0.366, 2.267e-9
0.368, 2.276e-9
0.370, 2.294e-9
0.372, 2.302e-9
0.374, 2.312e-9
0.376, 2.321e-9
0.378, 2.335e-9
0.380, 2.348e-9
0.382, 2.359e-9
0.384, 2.370e-9
0.386, 2.378e-9
0.388, 2.384e-9
0.390, 2.398e-9
0.392, 2.410e-9
0.394, 2.411e-9
0.396, 2.425e-9
0.398, 2.436e-9
0.400, 2.444e-9
0.402, 2.451e-9
0.404, 2.466e-9
0.406, 2.476e-9
0.408, 2.485e-9
0.410, 2.487e-9
0.412, 2.505e-9
0.414, 2.517e-9
0.416, 2.524e-9
0.418, 2.539e-9
0.420, 2.551e-9
0.422, 2.561e-9
0.424, 2.571e-9
0.426, 2.582e-9
0.428, 2.586e-9
0.430, 2.596e-9
0.432, 2.602e-9
0.434, 2.612e-9
0.436, 2.619e-9
0.438, 2.644e-9
0.440, 2.646e-9
0.442, 2.658e-9
0.444, 2.665e-9
0.446, 2.679e-9
0.448, 2.677e-9
0.450, 2.695e-9
0.452, 2.703e-9
0.454, 2.712e-9
0.456, 2.727e-9
0.458, 2.738e-9
0.460, 2.757e-9
0.462, 2.760e-9
0.464, 2.781e-9
0.466, 2.776e-9
0.468, 2.790e-9
0.470, 2.798e-9
0.472, 2.811e-9
0.474, 2.819e-9
0.476, 2.831e-9
0.478, 2.837e-9
0.480, 2.841e-9
0.482, 2.843e-9
0.484, 2.860e-9
0.486, 2.864e-9
0.488, 2.883e-9
0.490, 2.890e-9
0.492, 2.895e-9
0.494, 2.901e-9
0.496, 2.907e-9
0.498, 2.918e-9
0.500, 2.903e-9
0.498, 2.757e-9
0.496, 2.671e-9
0.494, 2.597e-9
0.492, 2.531e-9
0.490, 2.480e-9
0.488, 2.429e-9
0.486, 2.382e-9
0.484, 2.328e-9
0.482, 2.284e-9
0.480, 2.244e-9
0.478, 2.217e-9
0.476, 2.182e-9
0.474, 2.140e-9
0.472, 2.109e-9
0.470, 2.075e-9
0.468, 2.041e-9
0.466, 2.011e-9
0.464, 1.983e-9
0.462, 1.954e-9
0.460, 1.923e-9
0.458, 1.894e-9
0.456, 1.865e-9
0.454, 1.839e-9
0.452, 1.821e-9
0.450, 1.788e-9
0.448, 1.767e-9
0.446, 1.736e-9
0.444, 1.719e-9
0.442, 1.690e-9
0.440, 1.673e-9
0.438, 1.638e-9
0.436, 1.622e-9
0.434, 1.594e-9
0.432, 1.577e-9
0.430, 1.545e-9
0.428, 1.525e-9
0.426, 1.500e-9
0.424, 1.481e-9
0.422, 1.466e-9
0.420, 1.442e-9
0.418, 1.425e-9
0.416, 1.396e-9
0.414, 1.385e-9
0.412, 1.352e-9
0.410, 1.347e-9
0.408, 1.312e-9
0.406, 1.307e-9
0.404, 1.276e-9
0.402, 1.265e-9
0.400, 1.240e-9
0.398, 1.231e-9
0.396, 1.205e-9
0.394, 1.191e-9
0.392, 1.169e-9
0.390, 1.150e-9
0.388, 1.132e-9
0.386, 1.120e-9
0.384, 1.102e-9
0.382, 1.085e-9
0.380, 1.069e-9
0.378, 1.051e-9
0.376, 1.035e-9
0.374, 1.019e-9
0.372, 1.007e-9
0.370, 9.875e-10
0.368, 9.750e-10
0.366, 9.537e-10
0.364, 9.386e-10
0.362, 9.168e-10
0.360, 9.055e-10
0.358, 8.892e-10
0.356, 8.759e-10
0.354, 8.577e-10
0.352, 8.464e-10
0.350, 8.268e-10
0.348, 8.150e-10
0.346, 7.967e-10
0.344, 7.855e-10
0.342, 7.684e-10
0.340, 7.590e-10
0.338, 7.389e-10
0.336, 7.322e-10
0.334, 7.108e-10
0.332, 7.013e-10
0.330, 6.831e-10
0.328, 6.721e-10
0.326, 6.559e-10
0.324, 6.444e-10
0.322, 6.305e-10
0.320, 6.207e-10
0.318, 6.080e-10
0.316, 5.957e-10
0.314, 5.821e-10
0.312, 5.685e-10
0.310, 5.569e-10
0.308, 5.437e-10
0.306, 5.331e-10
0.304, 5.188e-10
0.302, 5.086e-10
0.300, 4.938e-10
0.298, 4.798e-10
0.296, 4.676e-10
0.294, 4.544e-10
0.292, 4.425e-10
0.290, 4.272e-10
0.288, 4.181e-10
0.286, 4.063e-10
0.284, 3.961e-10
0.282, 3.836e-10
0.280, 3.742e-10
0.278, 3.637e-10
0.276, 3.542e-10
0.274, 3.439e-10
0.272, 3.316e-10
0.270, 3.217e-10
0.268, 3.087e-10
0.266, 3.003e-10
0.264, 2.877e-10
0.262, 2.796e-10
0.260, 2.658e-10
0.258, 2.600e-10
0.256, 2.448e-10
0.254, 2.404e-10
0.252, 2.243e-10
0.250, 2.193e-10
0.248, 2.032e-10
0.246, 1.989e-10
0.244, 1.828e-10
0.242, 1.777e-10
0.240, 1.630e-10
0.238, 1.585e-10
0.236, 1.473e-10
0.234, 1.410e-10
0.232, 1.293e-10
0.230, 1.223e-10
0.228, 1.129e-10
0.226, 1.018e-10
0.224, 9.645e-11
0.222, 8.280e-11
0.220, 7.988e-11
0.218, 6.399e-11
0.216, 6.165e-11
0.214, 4.478e-11
0.212, 4.371e-11
0.210, 2.665e-11
0.208, 2.616e-11
0.206, 9.495e-12
0.204, 8.715e-12
0.202, -8.539e-12
0.200, -1.293e-11
0.198, -2.852e-11
0.196, -3.223e-11
0.194, -4.500e-11
0.192, -5.280e-11
0.190, -6.313e-11
0.188, -7.171e-11
0.186, -7.814e-11
0.184, -8.828e-11
0.182, -9.413e-11
0.180, -1.042e-10
0.178, -1.088e-10
0.176, -1.201e-10
0.174, -1.247e-10
0.172, -1.362e-10
0.170, -1.413e-10
0.168, -1.532e-10
0.166, -1.589e-10
0.164, -1.701e-10
0.162, -1.741e-10
0.160, -1.853e-10
0.158, -1.939e-10
0.156, -1.994e-10
0.154, -2.080e-10
0.152, -2.130e-10
0.150, -2.234e-10
0.148, -2.276e-10
0.146, -2.415e-10
0.144, -2.431e-10
0.142, -2.590e-10
0.140, -2.635e-10
0.138, -2.780e-10
0.136, -2.810e-10
0.134, -2.935e-10
0.132, -2.976e-10
0.130, -3.075e-10
0.128, -3.140e-10
0.126, -3.212e-10
0.124, -3.284e-10
0.122, -3.353e-10
0.120, -3.449e-10
0.118, -3.488e-10
0.116, -3.599e-10
0.114, -3.629e-10
0.112, -3.752e-10
0.110, -3.781e-10
0.108, -3.900e-10
0.106, -3.949e-10
0.104, -4.063e-10
0.102, -4.105e-10
0.100, -4.236e-10
0.098, -4.288e-10
0.096, -4.383e-10
0.094, -4.427e-10
0.092, -4.550e-10
0.090, -4.589e-10
0.088, -4.689e-10
0.086, -4.723e-10
0.084, -4.830e-10
0.082, -4.917e-10
0.080, -5.000e-10
0.078, -5.109e-10
0.076, -5.173e-10
0.074, -5.308e-10
0.072, -5.334e-10
0.070, -5.497e-10
0.068, -5.543e-10
0.066, -5.662e-10
0.064, -5.679e-10
0.062, -5.822e-10
0.060, -5.853e-10
0.058, -5.965e-10
0.056, -6.028e-10
0.054, -6.130e-10
0.052, -6.190e-10
0.050, -6.303e-10
0.048, -6.381e-10
0.046, -6.489e-10
0.044, -6.591e-10
0.042, -6.677e-10
0.040, -6.757e-10
0.038, -6.847e-10
0.036, -6.946e-10
0.034, -7.028e-10
0.032, -7.151e-10
0.030, -7.236e-10
0.028, -7.332e-10
0.026, -7.431e-10
0.024, -7.560e-10
0.022, -7.646e-10
0.020, -7.806e-10
0.018, -7.872e-10
0.016, -7.994e-10
0.014, -8.069e-10
0.012, -8.195e-10
0.010, -8.262e-10
0.008, -8.402e-10
0.006, -8.469e-10
0.004, -8.609e-10
0.002, -8.699e-10
-0.000, -8.841e-10
-0.002, -8.922e-10
-0.004, -9.080e-10
-0.006, -9.174e-10
-0.008, -9.294e-10
-0.010, -9.389e-10
-0.012, -9.548e-10
-0.014, -9.634e-10
-0.016, -9.835e-10
-0.018, -9.902e-10
-0.020, -1.012e-9
-0.022, -1.020e-9
-0.024, -1.040e-9
-0.026, -1.050e-9
-0.028, -1.065e-9
-0.030, -1.077e-9
-0.032, -1.089e-9
-0.034, -1.105e-9
-0.036, -1.114e-9
-0.038, -1.133e-9
-0.040, -1.142e-9
-0.042, -1.161e-9
-0.044, -1.169e-9
-0.046, -1.188e-9
-0.048, -1.200e-9
-0.050, -1.221e-9
-0.052, -1.235e-9
-0.054, -1.256e-9
-0.056, -1.271e-9
-0.058, -1.290e-9
-0.060, -1.302e-9
-0.062, -1.319e-9
-0.064, -1.331e-9
-0.066, -1.352e-9
-0.068, -1.362e-9
-0.070, -1.387e-9
-0.072, -1.395e-9
-0.074, -1.422e-9
-0.076, -1.430e-9
-0.078, -1.456e-9
-0.080, -1.465e-9
-0.082, -1.496e-9
-0.084, -1.508e-9
-0.086, -1.531e-9
-0.088, -1.548e-9
-0.090, -1.565e-9
-0.092, -1.583e-9
-0.094, -1.601e-9
-0.096, -1.620e-9
-0.098, -1.637e-9
-0.100, -1.657e-9
-0.102, -1.674e-9
-0.104, -1.694e-9
-0.106, -1.714e-9
-0.108, -1.735e-9
-0.110, -1.758e-9
-0.112, -1.775e-9
-0.114, -1.797e-9
-0.116, -1.813e-9
-0.118, -1.836e-9
-0.120, -1.854e-9
-0.122, -1.880e-9
-0.124, -1.898e-9
-0.126, -1.921e-9
-0.128, -1.939e-9
-0.130, -1.961e-9
-0.132, -1.985e-9
-0.134, -2.005e-9
-0.136, -2.032e-9
-0.138, -2.048e-9
-0.140, -2.075e-9
-0.142, -2.090e-9
-0.144, -2.120e-9
-0.146, -2.138e-9
-0.148, -2.165e-9
-0.150, -2.179e-9
-0.152, -2.211e-9
-0.154, -2.230e-9
-0.156, -2.257e-9
-0.158, -2.276e-9
-0.160, -2.301e-9
-0.162, -2.320e-9
-0.164, -2.350e-9
-0.166, -2.371e-9
-0.168, -2.396e-9
-0.170, -2.414e-9
-0.172, -2.441e-9
-0.174, -2.460e-9
-0.176, -2.490e-9
-0.178, -2.511e-9
-0.180, -2.536e-9
-0.182, -2.557e-9
-0.184, -2.582e-9
-0.186, -2.604e-9
-0.188, -2.627e-9
-0.190, -2.652e-9
-0.192, -2.673e-9
-0.194, -2.698e-9
-0.196, -2.722e-9
-0.198, -2.747e-9
-0.200, -2.768e-9
-0.202, -2.790e-9
-0.204, -2.815e-9
-0.206, -2.838e-9
-0.208, -2.865e-9
-0.210, -2.886e-9
-0.212, -2.912e-9
-0.214, -2.932e-9
-0.216, -2.958e-9
-0.218, -2.979e-9
-0.220, -3.008e-9
-0.222, -3.027e-9
-0.224, -3.057e-9
-0.226, -3.073e-9
-0.228, -3.102e-9
-0.230, -3.119e-9
-0.232, -3.148e-9
-0.234, -3.167e-9
-0.236, -3.194e-9
-0.238, -3.217e-9
-0.240, -3.244e-9
-0.242, -3.262e-9
-0.244, -3.286e-9
-0.246, -3.311e-9
-0.248, -3.338e-9
-0.250, -3.355e-9
-0.252, -3.380e-9
-0.254, -3.402e-9
-0.256, -3.430e-9
-0.258, -3.455e-9
-0.260, -3.475e-9
-0.262, -3.496e-9
-0.264, -3.515e-9
-0.266, -3.537e-9
-0.268, -3.561e-9
-0.270, -3.588e-9
-0.272, -3.614e-9
-0.274, -3.641e-9
-0.276, -3.662e-9
-0.278, -3.690e-9
-0.280, -3.715e-9
-0.282, -3.735e-9
-0.284, -3.758e-9
-0.286, -3.778e-9
-0.288, -3.804e-9
-0.290, -3.825e-9
-0.292, -3.856e-9
-0.294, -3.878e-9
-0.296, -3.903e-9
-0.298, -3.921e-9
-0.300, -3.953e-9
-0.302, -3.973e-9
-0.304, -3.998e-9
-0.306, -4.021e-9
-0.308, -4.052e-9
-0.310, -4.076e-9
-0.312, -4.104e-9
-0.314, -4.126e-9
-0.316, -4.156e-9
-0.318, -4.176e-9
-0.320, -4.208e-9
-0.322, -4.225e-9
-0.324, -4.248e-9
-0.326, -4.274e-9
-0.328, -4.298e-9
-0.330, -4.326e-9
-0.332, -4.348e-9
-0.334, -4.375e-9
-0.336, -4.398e-9
-0.338, -4.427e-9
-0.340, -4.452e-9
-0.342, -4.479e-9
-0.344, -4.502e-9
-0.346, -4.524e-9
-0.348, -4.548e-9
-0.350, -4.576e-9
-0.352, -4.605e-9
-0.354, -4.633e-9
-0.356, -4.665e-9
-0.358, -4.700e-9
-0.360, -4.726e-9
-0.362, -4.759e-9
-0.364, -4.784e-9
-0.366, -4.822e-9
-0.368, -4.844e-9
-0.370, -4.881e-9
-0.372, -4.910e-9
-0.374, -4.948e-9
-0.376, -4.969e-9
-0.378, -5.006e-9
-0.380, -5.026e-9
-0.382, -5.063e-9
-0.384, -5.094e-9
-0.386, -5.128e-9
-0.388, -5.158e-9
-0.390, -5.189e-9
-0.392, -5.214e-9
-0.394, -5.241e-9
-0.396, -5.278e-9
-0.398, -5.301e-9
-0.400, -5.329e-9
-0.402, -5.358e-9
-0.404, -5.393e-9
-0.406, -5.416e-9
-0.408, -5.453e-9
-0.410, -5.483e-9
-0.412, -5.513e-9
-0.414, -5.540e-9
-0.416, -5.572e-9
-0.418, -5.594e-9
-0.420, -5.634e-9
-0.422, -5.663e-9
-0.424, -5.693e-9
-0.426, -5.714e-9
-0.428, -5.747e-9
-0.430, -5.776e-9
-0.432, -5.804e-9
-0.434, -5.837e-9
-0.436, -5.865e-9
-0.438, -5.901e-9
-0.440, -5.929e-9
-0.442, -5.960e-9
-0.444, -5.987e-9
-0.446, -6.016e-9
-0.448, -6.042e-9
-0.450, -6.078e-9
-0.452, -6.111e-9
-0.454, -6.148e-9
-0.456, -6.167e-9
-0.458, -6.199e-9
-0.460, -6.223e-9
-0.462, -6.252e-9
-0.464, -6.276e-9
-0.466, -6.312e-9
-0.468, -6.339e-9
-0.470, -6.371e-9
-0.472, -6.406e-9
-0.474, -6.436e-9
-0.476, -6.476e-9
-0.478, -6.503e-9
-0.480, -6.531e-9
-0.482, -6.559e-9
-0.484, -6.590e-9
-0.486, -6.628e-9
-0.488, -6.656e-9
-0.490, -6.682e-9
-0.492, -6.708e-9
-0.494, -6.739e-9
-0.496, -6.763e-9
-0.498, -6.791e-9
-0.499, -6.803e-9