File: Supplementary Fig 4/Fig S4f Surface CV no cells/CV SURFACE (incubation) (4).txt
Mar. 6, 2025   16:08:43
Cyclic Voltammetry
File: cv surface (incubation) (4).bin
Data Source:  Experiment
Instrument Model:  CHI920C
Ref. Electrode:
Header:
Note:

Init E (V) = -0.5
High E (V) = 0.5
Low E (V) = -0.5
Init P/N = P
Scan Rate (V/s) = 0.05
Segment = 2
Sample Interval (V) = 0.001
Quiet Time (sec) = 10
Sensitivity (A/V) = 1e-7

Results:

Channel 1:
Segment 1:

Segment 2:

Potential/V, Current/A

-0.500, -5.091e-9
-0.498, -4.983e-9
-0.496, -4.909e-9
-0.494, -4.837e-9
-0.492, -4.776e-9
-0.490, -4.712e-9
-0.488, -4.660e-9
-0.486, -4.590e-9
-0.484, -4.543e-9
-0.482, -4.479e-9
-0.480, -4.437e-9
-0.478, -4.373e-9
-0.476, -4.333e-9
-0.474, -4.272e-9
-0.472, -4.236e-9
-0.470, -4.184e-9
-0.468, -4.135e-9
-0.466, -4.083e-9
-0.464, -4.038e-9
-0.462, -3.993e-9
-0.460, -3.949e-9
-0.458, -3.906e-9
-0.456, -3.859e-9
-0.454, -3.816e-9
-0.452, -3.771e-9
-0.450, -3.735e-9
-0.448, -3.692e-9
-0.446, -3.649e-9
-0.444, -3.605e-9
-0.442, -3.564e-9
-0.440, -3.524e-9
-0.438, -3.488e-9
-0.436, -3.451e-9
-0.434, -3.409e-9
-0.432, -3.371e-9
-0.430, -3.330e-9
-0.428, -3.289e-9
-0.426, -3.250e-9
-0.424, -3.214e-9
-0.422, -3.173e-9
-0.420, -3.136e-9
-0.418, -3.101e-9
-0.416, -3.061e-9
-0.414, -3.026e-9
-0.412, -2.990e-9
-0.410, -2.955e-9
-0.408, -2.913e-9
-0.406, -2.882e-9
-0.404, -2.842e-9
-0.402, -2.809e-9
-0.400, -2.771e-9
-0.398, -2.743e-9
-0.396, -2.701e-9
-0.394, -2.668e-9
-0.392, -2.631e-9
-0.390, -2.603e-9
-0.388, -2.565e-9
-0.386, -2.537e-9
-0.384, -2.502e-9
-0.382, -2.469e-9
-0.380, -2.435e-9
-0.378, -2.404e-9
-0.376, -2.375e-9
-0.374, -2.340e-9
-0.372, -2.308e-9
-0.370, -2.275e-9
-0.368, -2.252e-9
-0.366, -2.213e-9
-0.364, -2.189e-9
-0.362, -2.153e-9
-0.360, -2.131e-9
-0.358, -2.094e-9
-0.356, -2.071e-9
-0.354, -2.037e-9
-0.352, -2.012e-9
-0.350, -1.979e-9
-0.348, -1.952e-9
-0.346, -1.924e-9
-0.344, -1.898e-9
-0.342, -1.869e-9
-0.340, -1.839e-9
-0.338, -1.813e-9
-0.336, -1.787e-9
-0.334, -1.763e-9
-0.332, -1.734e-9
-0.330, -1.708e-9
-0.328, -1.681e-9
-0.326, -1.660e-9
-0.324, -1.636e-9
-0.322, -1.612e-9
-0.320, -1.587e-9
-0.318, -1.562e-9
-0.316, -1.541e-9
-0.314, -1.514e-9
-0.312, -1.492e-9
-0.310, -1.463e-9
-0.308, -1.442e-9
-0.306, -1.415e-9
-0.304, -1.397e-9
-0.302, -1.370e-9
-0.300, -1.352e-9
-0.298, -1.327e-9
-0.296, -1.310e-9
-0.294, -1.287e-9
-0.292, -1.267e-9
-0.290, -1.240e-9
-0.288, -1.222e-9
-0.286, -1.197e-9
-0.284, -1.180e-9
-0.282, -1.153e-9
-0.280, -1.138e-9
-0.278, -1.115e-9
-0.276, -1.098e-9
-0.274, -1.075e-9
-0.272, -1.060e-9
-0.270, -1.041e-9
-0.268, -1.022e-9
-0.266, -1.003e-9
-0.264, -9.763e-10
-0.262, -9.604e-10
-0.260, -9.371e-10
-0.258, -9.236e-10
-0.256, -9.012e-10
-0.254, -8.887e-10
-0.252, -8.687e-10
-0.250, -8.541e-10
-0.248, -8.351e-10
-0.246, -8.213e-10
-0.244, -8.058e-10
-0.242, -7.901e-10
-0.240, -7.742e-10
-0.238, -7.549e-10
-0.236, -7.385e-10
-0.234, -7.235e-10
-0.232, -7.049e-10
-0.230, -6.912e-10
-0.228, -6.718e-10
-0.226, -6.598e-10
-0.224, -6.392e-10
-0.222, -6.313e-10
-0.220, -6.076e-10
-0.218, -6.014e-10
-0.216, -5.786e-10
-0.214, -5.713e-10
-0.212, -5.482e-10
-0.210, -5.390e-10
-0.208, -5.153e-10
-0.206, -5.071e-10
-0.204, -4.862e-10
-0.202, -4.741e-10
-0.200, -4.587e-10
-0.198, -4.466e-10
-0.196, -4.337e-10
-0.194, -4.172e-10
-0.192, -4.074e-10
-0.190, -3.870e-10
-0.188, -3.795e-10
-0.186, -3.580e-10
-0.184, -3.537e-10
-0.182, -3.326e-10
-0.180, -3.308e-10
-0.178, -3.099e-10
-0.176, -3.058e-10
-0.174, -2.831e-10
-0.172, -2.760e-10
-0.170, -2.545e-10
-0.168, -2.456e-10
-0.166, -2.271e-10
-0.164, -2.162e-10
-0.162, -2.011e-10
-0.160, -1.922e-10
-0.158, -1.768e-10
-0.156, -1.671e-10
-0.154, -1.542e-10
-0.152, -1.434e-10
-0.150, -1.319e-10
-0.148, -1.199e-10
-0.146, -1.091e-10
-0.144, -9.530e-11
-0.142, -8.838e-11
-0.140, -7.483e-11
-0.138, -6.830e-11
-0.136, -4.958e-11
-0.134, -4.656e-11
-0.132, -2.755e-11
-0.130, -2.131e-11
-0.128, -2.788e-12
-0.126, 7.545e-12
-0.124, 1.993e-11
-0.122, 2.646e-11
-0.120, 3.825e-11
-0.118, 4.498e-11
-0.116, 5.648e-11
-0.114, 6.603e-11
-0.112, 7.588e-11
-0.110, 8.914e-11
-0.108, 9.411e-11
-0.106, 1.089e-10
-0.104, 1.147e-10
-0.102, 1.309e-10
-0.100, 1.352e-10
-0.098, 1.483e-10
-0.096, 1.535e-10
-0.094, 1.649e-10
-0.092, 1.705e-10
-0.090, 1.818e-10
-0.088, 1.904e-10
-0.086, 1.983e-10
-0.084, 2.092e-10
-0.082, 2.194e-10
-0.080, 2.304e-10
-0.078, 2.409e-10
-0.076, 2.505e-10
-0.074, 2.613e-10
-0.072, 2.691e-10
-0.070, 2.779e-10
-0.068, 2.857e-10
-0.066, 2.956e-10
-0.064, 3.020e-10
-0.062, 3.103e-10
-0.060, 3.162e-10
-0.058, 3.252e-10
-0.056, 3.336e-10
-0.054, 3.410e-10
-0.052, 3.505e-10
-0.050, 3.606e-10
-0.048, 3.697e-10
-0.046, 3.769e-10
-0.044, 3.852e-10
-0.042, 3.944e-10
-0.040, 3.999e-10
-0.038, 4.079e-10
-0.036, 4.126e-10
-0.034, 4.250e-10
-0.032, 4.287e-10
-0.030, 4.432e-10
-0.028, 4.449e-10
-0.026, 4.585e-10
-0.024, 4.637e-10
-0.022, 4.767e-10
-0.020, 4.824e-10
-0.018, 4.982e-10
-0.016, 5.076e-10
-0.014, 5.150e-10
-0.012, 5.274e-10
-0.010, 5.311e-10
-0.008, 5.447e-10
-0.006, 5.435e-10
-0.004, 5.544e-10
-0.002, 5.565e-10
0.000, 5.694e-10
0.002, 5.791e-10
0.004, 5.924e-10
0.006, 6.004e-10
0.008, 6.042e-10
0.010, 6.163e-10
0.012, 6.188e-10
0.014, 6.317e-10
0.016, 6.357e-10
0.018, 6.443e-10
0.020, 6.466e-10
0.022, 6.561e-10
0.024, 6.639e-10
0.026, 6.712e-10
0.028, 6.766e-10
0.030, 6.795e-10
0.032, 6.884e-10
0.034, 6.918e-10
0.036, 6.999e-10
0.038, 7.039e-10
0.040, 7.099e-10
0.042, 7.142e-10
0.044, 7.220e-10
0.046, 7.286e-10
0.048, 7.336e-10
0.050, 7.458e-10
0.052, 7.483e-10
0.054, 7.627e-10
0.056, 7.667e-10
0.058, 7.761e-10
0.060, 7.811e-10
0.062, 7.856e-10
0.064, 8.149e-10
0.066, 8.357e-10
0.068, 8.343e-10
0.070, 8.400e-10
0.072, 8.398e-10
0.074, 8.467e-10
0.076, 8.530e-10
0.078, 8.575e-10
0.080, 8.639e-10
0.082, 8.723e-10
0.084, 8.899e-10
0.086, 8.983e-10
0.088, 8.997e-10
0.090, 9.006e-10
0.092, 9.085e-10
0.094, 9.198e-10
0.096, 9.210e-10
0.098, 9.466e-10
0.100, 9.442e-10
0.102, 9.530e-10
0.104, 9.515e-10
0.106, 9.625e-10
0.108, 9.697e-10
0.110, 9.839e-10
0.112, 9.777e-10
0.114, 9.774e-10
0.116, 9.810e-10
0.118, 9.817e-10
0.120, 9.897e-10
0.122, 9.951e-10
0.124, 1.004e-9
0.126, 1.006e-9
0.128, 1.017e-9
0.130, 1.020e-9
0.132, 1.026e-9
0.134, 1.023e-9
0.136, 1.031e-9
0.138, 1.037e-9
0.140, 1.048e-9
0.142, 1.048e-9
0.144, 1.056e-9
0.146, 1.058e-9
0.148, 1.068e-9
0.150, 1.076e-9
0.152, 1.088e-9
0.154, 1.087e-9
0.156, 1.092e-9
0.158, 1.098e-9
0.160, 1.106e-9
0.162, 1.124e-9
0.164, 1.131e-9
0.166, 1.130e-9
0.168, 1.141e-9
0.170, 1.142e-9
0.172, 1.151e-9
0.174, 1.156e-9
0.176, 1.160e-9
0.178, 1.167e-9
0.180, 1.179e-9
0.182, 1.185e-9
0.184, 1.201e-9
0.186, 1.205e-9
0.188, 1.227e-9
0.190, 1.243e-9
0.192, 1.247e-9
0.194, 1.244e-9
0.196, 1.262e-9
0.198, 1.273e-9
0.200, 1.284e-9
0.202, 1.291e-9
0.204, 1.302e-9
0.206, 1.306e-9
0.208, 1.309e-9
0.210, 1.313e-9
0.212, 1.323e-9
0.214, 1.338e-9
0.216, 1.342e-9
0.218, 1.350e-9
0.220, 1.355e-9
0.222, 1.368e-9
0.224, 1.377e-9
0.226, 1.393e-9
0.228, 1.398e-9
0.230, 1.419e-9
0.232, 1.433e-9
0.234, 1.456e-9
0.236, 1.456e-9
0.238, 1.476e-9
0.240, 1.486e-9
0.242, 1.494e-9
0.244, 1.504e-9
0.246, 1.521e-9
0.248, 1.527e-9
0.250, 1.545e-9
0.252, 1.551e-9
0.254, 1.563e-9
0.256, 1.575e-9
0.258, 1.585e-9
0.260, 1.601e-9
0.262, 1.607e-9
0.264, 1.620e-9
0.266, 1.623e-9
0.268, 1.639e-9
0.270, 1.643e-9
0.272, 1.658e-9
0.274, 1.663e-9
0.276, 1.686e-9
0.278, 1.692e-9
0.280, 1.706e-9
0.282, 1.712e-9
0.284, 1.732e-9
0.286, 1.740e-9
0.288, 1.751e-9
0.290, 1.759e-9
0.292, 1.775e-9
0.294, 1.783e-9
0.296, 1.795e-9
0.298, 1.802e-9
0.300, 1.821e-9
0.302, 1.833e-9
0.304, 1.849e-9
0.306, 1.856e-9
0.308, 1.865e-9
0.310, 1.882e-9
0.312, 1.887e-9
0.314, 1.899e-9
0.316, 1.910e-9
0.318, 1.927e-9
0.320, 1.941e-9
0.322, 1.950e-9
0.324, 1.965e-9
0.326, 1.970e-9
0.328, 1.983e-9
0.330, 1.991e-9
0.332, 2.000e-9
0.334, 2.011e-9
0.336, 2.020e-9
0.338, 2.028e-9
0.340, 2.040e-9
0.342, 2.056e-9
0.344, 2.066e-9
0.346, 2.077e-9
0.348, 2.086e-9
0.350, 2.098e-9
0.352, 2.101e-9
0.354, 2.117e-9
0.356, 2.125e-9
0.358, 2.141e-9
0.360, 2.150e-9
0.362, 2.171e-9
0.364, 2.172e-9
0.366, 2.196e-9
0.368, 2.210e-9
0.370, 2.218e-9
0.372, 2.235e-9
0.374, 2.244e-9
0.376, 2.252e-9
0.378, 2.259e-9
0.380, 2.272e-9
0.382, 2.281e-9
0.384, 2.287e-9
0.386, 2.293e-9
0.388, 2.311e-9
0.390, 2.310e-9
0.392, 2.331e-9
0.394, 2.335e-9
0.396, 2.351e-9
0.398, 2.355e-9
0.400, 2.379e-9
0.402, 2.380e-9
0.404, 2.394e-9
0.406, 2.395e-9
0.408, 2.410e-9
0.410, 2.418e-9
0.412, 2.430e-9
0.414, 2.441e-9
0.416, 2.452e-9
0.418, 2.467e-9
0.420, 2.472e-9
0.422, 2.487e-9
0.424, 2.491e-9
0.426, 2.507e-9
0.428, 2.514e-9
0.430, 2.528e-9
0.432, 2.546e-9
0.434, 2.552e-9
0.436, 2.570e-9
0.438, 2.579e-9
0.440, 2.595e-9
0.442, 2.599e-9
0.444, 2.613e-9
0.446, 2.614e-9
0.448, 2.634e-9
0.450, 2.644e-9
0.452, 2.653e-9
0.454, 2.662e-9
0.456, 2.681e-9
0.458, 2.690e-9
0.460, 2.707e-9
0.462, 2.715e-9
0.464, 2.732e-9
0.466, 2.738e-9
0.468, 2.747e-9
0.470, 2.763e-9
0.472, 2.764e-9
0.474, 2.774e-9
0.476, 2.783e-9
0.478, 2.791e-9
0.480, 2.796e-9
0.482, 2.813e-9
0.484, 2.822e-9
0.486, 2.825e-9
0.488, 2.834e-9
0.490, 2.848e-9
0.492, 2.857e-9
0.494, 2.869e-9
0.496, 2.869e-9
0.498, 2.879e-9
0.500, 2.863e-9
0.498, 2.726e-9
0.496, 2.628e-9
0.494, 2.564e-9
0.492, 2.497e-9
0.490, 2.444e-9
0.488, 2.390e-9
0.486, 2.343e-9
0.484, 2.296e-9
0.482, 2.258e-9
0.480, 2.218e-9
0.478, 2.178e-9
0.476, 2.147e-9
0.474, 2.116e-9
0.472, 2.087e-9
0.470, 2.053e-9
0.468, 2.026e-9
0.466, 1.997e-9
0.464, 1.977e-9
0.462, 1.952e-9
0.460, 1.923e-9
0.458, 1.891e-9
0.456, 1.871e-9
0.454, 1.846e-9
0.452, 1.818e-9
0.450, 1.794e-9
0.448, 1.771e-9
0.446, 1.757e-9
0.444, 1.730e-9
0.442, 1.707e-9
0.440, 1.680e-9
0.438, 1.659e-9
0.436, 1.643e-9
0.434, 1.623e-9
0.432, 1.599e-9
0.430, 1.580e-9
0.428, 1.554e-9
0.426, 1.539e-9
0.424, 1.520e-9
0.422, 1.499e-9
0.420, 1.483e-9
0.418, 1.459e-9
0.416, 1.441e-9
0.414, 1.416e-9
0.412, 1.400e-9
0.410, 1.382e-9
0.408, 1.365e-9
0.406, 1.343e-9
0.404, 1.326e-9
0.402, 1.303e-9
0.400, 1.287e-9
0.398, 1.267e-9
0.396, 1.253e-9
0.394, 1.240e-9
0.392, 1.220e-9
0.390, 1.204e-9
0.388, 1.183e-9
0.386, 1.168e-9
0.384, 1.148e-9
0.382, 1.140e-9
0.380, 1.120e-9
0.378, 1.111e-9
0.376, 1.090e-9
0.374, 1.082e-9
0.372, 1.058e-9
0.370, 1.047e-9
0.368, 1.025e-9
0.366, 1.015e-9
0.364, 9.988e-10
0.362, 9.867e-10
0.360, 9.671e-10
0.358, 9.507e-10
0.356, 9.355e-10
0.354, 9.203e-10
0.352, 9.051e-10
0.350, 8.908e-10
0.348, 8.756e-10
0.346, 8.609e-10
0.344, 8.444e-10
0.342, 8.294e-10
0.340, 8.161e-10
0.338, 8.020e-10
0.336, 7.892e-10
0.334, 7.738e-10
0.332, 7.640e-10
0.330, 7.469e-10
0.328, 7.369e-10
0.326, 7.211e-10
0.324, 7.094e-10
0.322, 6.940e-10
0.320, 6.817e-10
0.318, 6.697e-10
0.316, 6.557e-10
0.314, 6.442e-10
0.312, 6.322e-10
0.310, 6.202e-10
0.308, 6.079e-10
0.306, 5.943e-10
0.304, 5.862e-10
0.302, 5.716e-10
0.300, 5.617e-10
0.298, 5.482e-10
0.296, 5.384e-10
0.294, 5.259e-10
0.292, 5.149e-10
0.290, 5.027e-10
0.288, 4.911e-10
0.286, 4.785e-10
0.284, 4.645e-10
0.282, 4.528e-10
0.280, 4.396e-10
0.278, 4.285e-10
0.276, 4.171e-10
0.274, 4.064e-10
0.272, 3.960e-10
0.270, 3.873e-10
0.268, 3.773e-10
0.266, 3.700e-10
0.264, 3.585e-10
0.262, 3.491e-10
0.260, 3.387e-10
0.258, 3.272e-10
0.256, 3.174e-10
0.254, 3.103e-10
0.252, 2.983e-10
0.250, 2.913e-10
0.248, 2.790e-10
0.246, 2.744e-10
0.244, 2.611e-10
0.242, 2.553e-10
0.240, 2.438e-10
0.238, 2.357e-10
0.236, 2.241e-10
0.234, 2.139e-10
0.232, 2.056e-10
0.230, 1.913e-10
0.228, 1.880e-10
0.226, 1.730e-10
0.224, 1.708e-10
0.222, 1.566e-10
0.220, 1.555e-10
0.218, 1.415e-10
0.216, 1.373e-10
0.214, 1.262e-10
0.212, 1.201e-10
0.210, 1.127e-10
0.208, 1.026e-10
0.206, 9.674e-11
0.204, 8.602e-11
0.202, 7.978e-11
0.200, 6.906e-11
0.198, 6.379e-11
0.196, 5.092e-11
0.194, 4.576e-11
0.192, 3.708e-11
0.190, 3.104e-11
0.188, 2.236e-11
0.186, 1.603e-11
0.184, 6.863e-12
0.182, -2.885e-12
0.180, -1.195e-11
0.178, -1.897e-11
0.176, -3.077e-11
0.174, -3.827e-11
0.172, -4.938e-11
0.170, -5.562e-11
0.168, -6.635e-11
0.166, -7.200e-11
0.164, -8.087e-11
0.162, -8.945e-11
0.160, -9.325e-11
0.158, -1.052e-10
0.156, -1.071e-10
0.154, -1.227e-10
0.152, -1.233e-10
0.150, -1.364e-10
0.148, -1.371e-10
0.146, -1.521e-10
0.144, -1.549e-10
0.142, -1.655e-10
0.140, -1.706e-10
0.138, -1.790e-10
0.136, -1.879e-10
0.134, -1.938e-10
0.132, -2.033e-10
0.130, -2.073e-10
0.128, -2.177e-10
0.126, -2.226e-10
0.124, -2.334e-10
0.122, -2.390e-10
0.120, -2.494e-10
0.118, -2.557e-10
0.116, -2.687e-10
0.114, -2.730e-10
0.112, -2.830e-10
0.110, -2.900e-10
0.108, -2.985e-10
0.106, -3.036e-10
0.104, -3.129e-10
0.102, -3.211e-10
0.100, -3.283e-10
0.098, -3.348e-10
0.096, -3.413e-10
0.094, -3.469e-10
0.092, -3.553e-10
0.090, -3.607e-10
0.088, -3.714e-10
0.086, -3.743e-10
0.084, -3.875e-10
0.082, -3.885e-10
0.080, -4.030e-10
0.078, -4.059e-10
0.076, -4.183e-10
0.074, -4.219e-10
0.072, -4.339e-10
0.070, -4.388e-10
0.068, -4.477e-10
0.066, -4.540e-10
0.064, -4.622e-10
0.062, -4.699e-10
0.060, -4.787e-10
0.058, -4.867e-10
0.056, -4.959e-10
0.054, -5.066e-10
0.052, -5.140e-10
0.050, -5.255e-10
0.048, -5.310e-10
0.046, -5.462e-10
0.044, -5.497e-10
0.042, -5.643e-10
0.040, -5.650e-10
0.038, -5.808e-10
0.036, -5.825e-10
0.034, -5.976e-10
0.032, -5.998e-10
0.030, -6.169e-10
0.028, -6.185e-10
0.026, -6.345e-10
0.024, -6.378e-10
0.022, -6.497e-10
0.020, -6.579e-10
0.018, -6.679e-10
0.016, -6.799e-10
0.014, -6.855e-10
0.012, -6.994e-10
0.010, -7.041e-10
0.008, -7.185e-10
0.006, -7.241e-10
0.004, -7.416e-10
0.002, -7.475e-10
-0.000, -7.605e-10
-0.002, -7.720e-10
-0.004, -7.829e-10
-0.006, -7.980e-10
-0.008, -8.055e-10
-0.010, -8.190e-10
-0.012, -8.226e-10
-0.014, -8.407e-10
-0.016, -8.438e-10
-0.018, -8.606e-10
-0.020, -8.668e-10
-0.022, -8.828e-10
-0.024, -8.942e-10
-0.026, -9.064e-10
-0.028, -9.204e-10
-0.030, -9.290e-10
-0.032, -9.461e-10
-0.034, -9.526e-10
-0.036, -9.721e-10
-0.038, -9.789e-10
-0.040, -1.005e-9
-0.042, -1.010e-9
-0.044, -1.034e-9
-0.046, -1.039e-9
-0.048, -1.059e-9
-0.050, -1.067e-9
-0.052, -1.084e-9
-0.054, -1.095e-9
-0.056, -1.112e-9
-0.058, -1.125e-9
-0.060, -1.140e-9
-0.062, -1.156e-9
-0.064, -1.168e-9
-0.066, -1.186e-9
-0.068, -1.201e-9
-0.070, -1.219e-9
-0.072, -1.234e-9
-0.074, -1.254e-9
-0.076, -1.270e-9
-0.078, -1.286e-9
-0.080, -1.301e-9
-0.082, -1.317e-9
-0.084, -1.334e-9
-0.086, -1.349e-9
-0.088, -1.368e-9
-0.090, -1.381e-9
-0.092, -1.401e-9
-0.094, -1.416e-9
-0.096, -1.437e-9
-0.098, -1.452e-9
-0.100, -1.473e-9
-0.102, -1.493e-9
-0.104, -1.516e-9
-0.106, -1.534e-9
-0.108, -1.550e-9
-0.110, -1.570e-9
-0.112, -1.586e-9
-0.114, -1.606e-9
-0.116, -1.624e-9
-0.118, -1.646e-9
-0.120, -1.660e-9
-0.122, -1.682e-9
-0.124, -1.698e-9
-0.126, -1.723e-9
-0.128, -1.738e-9
-0.130, -1.764e-9
-0.132, -1.780e-9
-0.134, -1.802e-9
-0.136, -1.821e-9
-0.138, -1.841e-9
-0.140, -1.866e-9
-0.142, -1.886e-9
-0.144, -1.910e-9
-0.146, -1.926e-9
-0.148, -1.952e-9
-0.150, -1.969e-9
-0.152, -1.996e-9
-0.154, -2.014e-9
-0.156, -2.038e-9
-0.158, -2.056e-9
-0.160, -2.079e-9
-0.162, -2.102e-9
-0.164, -2.125e-9
-0.166, -2.148e-9
-0.168, -2.167e-9
-0.170, -2.193e-9
-0.172, -2.211e-9
-0.174, -2.238e-9
-0.176, -2.259e-9
-0.178, -2.283e-9
-0.180, -2.302e-9
-0.182, -2.325e-9
-0.184, -2.350e-9
-0.186, -2.374e-9
-0.188, -2.398e-9
-0.190, -2.419e-9
-0.192, -2.444e-9
-0.194, -2.464e-9
-0.196, -2.496e-9
-0.198, -2.514e-9
-0.200, -2.541e-9
-0.202, -2.557e-9
-0.204, -2.587e-9
-0.206, -2.604e-9
-0.208, -2.632e-9
-0.210, -2.651e-9
-0.212, -2.677e-9
-0.214, -2.698e-9
-0.216, -2.724e-9
-0.218, -2.747e-9
-0.220, -2.769e-9
-0.222, -2.792e-9
-0.224, -2.818e-9
-0.226, -2.843e-9
-0.228, -2.869e-9
-0.230, -2.889e-9
-0.232, -2.910e-9
-0.234, -2.932e-9
-0.236, -2.958e-9
-0.238, -2.982e-9
-0.240, -3.008e-9
-0.242, -3.029e-9
-0.244, -3.054e-9
-0.246, -3.077e-9
-0.248, -3.098e-9
-0.250, -3.124e-9
-0.252, -3.143e-9
-0.254, -3.168e-9
-0.256, -3.188e-9
-0.258, -3.218e-9
-0.260, -3.236e-9
-0.262, -3.265e-9
-0.264, -3.286e-9
-0.266, -3.313e-9
-0.268, -3.338e-9
-0.270, -3.360e-9
-0.272, -3.384e-9
-0.274, -3.413e-9
-0.276, -3.440e-9
-0.278, -3.464e-9
-0.280, -3.485e-9
-0.282, -3.503e-9
-0.284, -3.530e-9
-0.286, -3.547e-9
-0.288, -3.574e-9
-0.290, -3.600e-9
-0.292, -3.626e-9
-0.294, -3.650e-9
-0.296, -3.678e-9
-0.298, -3.695e-9
-0.300, -3.730e-9
-0.302, -3.745e-9
-0.304, -3.781e-9
-0.306, -3.792e-9
-0.308, -3.837e-9
-0.310, -3.844e-9
-0.312, -3.893e-9
-0.314, -3.893e-9
-0.316, -3.949e-9
-0.318, -3.944e-9
-0.320, -3.993e-9
-0.322, -3.994e-9
-0.324, -4.036e-9
-0.326, -4.045e-9
-0.328, -4.092e-9
-0.330, -4.107e-9
-0.332, -4.140e-9
-0.334, -4.161e-9
-0.336, -4.190e-9
-0.338, -4.216e-9
-0.340, -4.238e-9
-0.342, -4.262e-9
-0.344, -4.288e-9
-0.346, -4.317e-9
-0.348, -4.346e-9
-0.350, -4.378e-9
-0.352, -4.403e-9
-0.354, -4.439e-9
-0.356, -4.462e-9
-0.358, -4.491e-9
-0.360, -4.521e-9
-0.362, -4.554e-9
-0.364, -4.587e-9
-0.366, -4.624e-9
-0.368, -4.658e-9
-0.370, -4.689e-9
-0.372, -4.718e-9
-0.374, -4.752e-9
-0.376, -4.780e-9
-0.378, -4.807e-9
-0.380, -4.839e-9
-0.382, -4.873e-9
-0.384, -4.904e-9
-0.386, -4.937e-9
-0.388, -4.966e-9
-0.390, -4.994e-9
-0.392, -5.021e-9
-0.394, -5.054e-9
-0.396, -5.087e-9
-0.398, -5.114e-9
-0.400, -5.152e-9
-0.402, -5.184e-9
-0.404, -5.209e-9
-0.406, -5.238e-9
-0.408, -5.264e-9
-0.410, -5.298e-9
-0.412, -5.325e-9
-0.414, -5.353e-9
-0.416, -5.385e-9
-0.418, -5.431e-9
-0.420, -5.455e-9
-0.422, -5.487e-9
-0.424, -5.510e-9
-0.426, -5.544e-9
-0.428, -5.566e-9
-0.430, -5.592e-9
-0.432, -5.616e-9
-0.434, -5.651e-9
-0.436, -5.679e-9
-0.438, -5.702e-9
-0.440, -5.734e-9
-0.442, -5.761e-9
-0.444, -5.789e-9
-0.446, -5.814e-9
-0.448, -5.851e-9
-0.450, -5.883e-9
-0.452, -5.922e-9
-0.454, -5.950e-9
-0.456, -5.977e-9
-0.458, -6.013e-9
-0.460, -6.046e-9
-0.462, -6.072e-9
-0.464, -6.101e-9
-0.466, -6.137e-9
-0.468, -6.164e-9
-0.470, -6.192e-9
-0.472, -6.218e-9
-0.474, -6.251e-9
-0.476, -6.284e-9
-0.478, -6.324e-9
-0.480, -6.355e-9
-0.482, -6.389e-9
-0.484, -6.418e-9
-0.486, -6.448e-9
-0.488, -6.482e-9
-0.490, -6.501e-9
-0.492, -6.534e-9
-0.494, -6.559e-9
-0.496, -6.590e-9
-0.498, -6.613e-9
-0.499, -6.623e-9