File: Supplementary Fig 4/Fig S4f Surface CV no cells/CV SURFACE (incubation) (8).txt
Mar. 6, 2025   16:13:15
Cyclic Voltammetry
File: cv surface (incubation) (8).bin
Data Source:  Experiment
Instrument Model:  CHI920C
Ref. Electrode:
Header:
Note:

Init E (V) = -0.5
High E (V) = 0.5
Low E (V) = -0.5
Init P/N = P
Scan Rate (V/s) = 0.05
Segment = 2
Sample Interval (V) = 0.001
Quiet Time (sec) = 10
Sensitivity (A/V) = 1e-7

Results:

Channel 1:
Segment 1:

Segment 2:

Potential/V, Current/A

-0.500, -4.526e-9
-0.498, -4.439e-9
-0.496, -4.363e-9
-0.494, -4.305e-9
-0.492, -4.243e-9
-0.490, -4.192e-9
-0.488, -4.138e-9
-0.486, -4.077e-9
-0.484, -4.027e-9
-0.482, -3.979e-9
-0.480, -3.932e-9
-0.478, -3.883e-9
-0.476, -3.832e-9
-0.474, -3.775e-9
-0.472, -3.741e-9
-0.470, -3.690e-9
-0.468, -3.645e-9
-0.466, -3.590e-9
-0.464, -3.543e-9
-0.462, -3.499e-9
-0.460, -3.461e-9
-0.458, -3.413e-9
-0.456, -3.372e-9
-0.454, -3.330e-9
-0.452, -3.293e-9
-0.450, -3.246e-9
-0.448, -3.211e-9
-0.446, -3.163e-9
-0.444, -3.126e-9
-0.442, -3.089e-9
-0.440, -3.047e-9
-0.438, -2.998e-9
-0.436, -2.963e-9
-0.434, -2.920e-9
-0.432, -2.890e-9
-0.430, -2.848e-9
-0.428, -2.807e-9
-0.426, -2.772e-9
-0.424, -2.741e-9
-0.422, -2.699e-9
-0.420, -2.665e-9
-0.418, -2.629e-9
-0.416, -2.593e-9
-0.414, -2.561e-9
-0.412, -2.530e-9
-0.410, -2.496e-9
-0.408, -2.452e-9
-0.406, -2.419e-9
-0.404, -2.384e-9
-0.402, -2.348e-9
-0.400, -2.310e-9
-0.398, -2.283e-9
-0.396, -2.255e-9
-0.394, -2.225e-9
-0.392, -2.193e-9
-0.390, -2.163e-9
-0.388, -2.133e-9
-0.386, -2.099e-9
-0.384, -2.070e-9
-0.382, -2.043e-9
-0.380, -2.016e-9
-0.378, -1.990e-9
-0.376, -1.959e-9
-0.374, -1.935e-9
-0.372, -1.907e-9
-0.370, -1.886e-9
-0.368, -1.855e-9
-0.366, -1.831e-9
-0.364, -1.802e-9
-0.362, -1.786e-9
-0.360, -1.761e-9
-0.358, -1.740e-9
-0.356, -1.704e-9
-0.354, -1.690e-9
-0.352, -1.661e-9
-0.350, -1.644e-9
-0.348, -1.618e-9
-0.346, -1.602e-9
-0.344, -1.576e-9
-0.342, -1.558e-9
-0.340, -1.536e-9
-0.338, -1.515e-9
-0.336, -1.491e-9
-0.334, -1.467e-9
-0.332, -1.447e-9
-0.330, -1.423e-9
-0.328, -1.410e-9
-0.326, -1.383e-9
-0.324, -1.370e-9
-0.322, -1.343e-9
-0.320, -1.331e-9
-0.318, -1.308e-9
-0.316, -1.297e-9
-0.314, -1.271e-9
-0.312, -1.259e-9
-0.310, -1.229e-9
-0.308, -1.220e-9
-0.306, -1.190e-9
-0.304, -1.184e-9
-0.302, -1.159e-9
-0.300, -1.150e-9
-0.298, -1.125e-9
-0.296, -1.115e-9
-0.294, -1.094e-9
-0.292, -1.082e-9
-0.290, -1.065e-9
-0.288, -1.048e-9
-0.286, -1.034e-9
-0.284, -1.013e-9
-0.282, -1.001e-9
-0.280, -9.789e-10
-0.278, -9.714e-10
-0.276, -9.492e-10
-0.274, -9.434e-10
-0.272, -9.177e-10
-0.270, -9.116e-10
-0.268, -8.907e-10
-0.266, -8.811e-10
-0.264, -8.653e-10
-0.262, -8.521e-10
-0.260, -8.406e-10
-0.258, -8.253e-10
-0.256, -8.183e-10
-0.254, -8.017e-10
-0.252, -7.945e-10
-0.250, -7.762e-10
-0.248, -7.660e-10
-0.246, -7.512e-10
-0.244, -7.377e-10
-0.242, -7.254e-10
-0.240, -7.120e-10
-0.238, -7.025e-10
-0.236, -6.894e-10
-0.234, -6.803e-10
-0.232, -6.660e-10
-0.230, -6.561e-10
-0.228, -6.431e-10
-0.226, -6.323e-10
-0.224, -6.203e-10
-0.222, -6.097e-10
-0.220, -6.009e-10
-0.218, -5.886e-10
-0.216, -5.796e-10
-0.214, -5.662e-10
-0.212, -5.588e-10
-0.210, -5.447e-10
-0.208, -5.344e-10
-0.206, -5.219e-10
-0.204, -5.112e-10
-0.202, -4.996e-10
-0.200, -4.859e-10
-0.198, -4.783e-10
-0.196, -4.617e-10
-0.194, -4.558e-10
-0.192, -4.417e-10
-0.190, -4.369e-10
-0.188, -4.201e-10
-0.186, -4.109e-10
-0.184, -3.991e-10
-0.182, -3.936e-10
-0.180, -3.836e-10
-0.178, -3.752e-10
-0.176, -3.659e-10
-0.174, -3.558e-10
-0.172, -3.510e-10
-0.170, -3.359e-10
-0.168, -3.337e-10
-0.166, -3.222e-10
-0.164, -3.201e-10
-0.162, -3.052e-10
-0.160, -3.018e-10
-0.158, -2.847e-10
-0.156, -2.832e-10
-0.154, -2.653e-10
-0.152, -2.630e-10
-0.150, -2.464e-10
-0.148, -2.441e-10
-0.146, -2.276e-10
-0.144, -2.249e-10
-0.142, -2.128e-10
-0.140, -2.080e-10
-0.138, -1.950e-10
-0.136, -1.841e-10
-0.134, -1.738e-10
-0.132, -1.701e-10
-0.130, -1.701e-10
-0.128, -1.600e-10
-0.126, -1.526e-10
-0.124, -1.445e-10
-0.122, -1.418e-10
-0.120, -1.291e-10
-0.118, -1.270e-10
-0.116, -1.157e-10
-0.114, -1.123e-10
-0.112, -1.011e-10
-0.110, -9.813e-11
-0.108, -8.808e-11
-0.106, -8.068e-11
-0.104, -6.771e-11
-0.102, -6.830e-11
-0.100, -5.787e-11
-0.098, -5.543e-11
-0.096, -4.207e-11
-0.094, -3.925e-11
-0.092, -2.618e-11
-0.090, -2.326e-11
-0.088, -1.400e-11
-0.086, -6.980e-12
-0.084, -2.301e-12
-0.082, 7.545e-12
-0.080, 9.982e-12
-0.078, 2.187e-11
-0.076, 2.080e-11
-0.074, 3.123e-11
-0.072, 3.162e-11
-0.070, 4.313e-11
-0.068, 4.498e-11
-0.066, 5.648e-11
-0.064, 5.814e-11
-0.062, 6.876e-11
-0.060, 7.637e-11
-0.058, 8.465e-11
-0.056, 9.226e-11
-0.054, 9.791e-11
-0.052, 1.041e-10
-0.050, 1.106e-10
-0.048, 1.196e-10
-0.046, 1.293e-10
-0.044, 1.505e-10
-0.042, 1.414e-10
-0.040, 1.389e-10
-0.038, 1.439e-10
-0.036, 1.468e-10
-0.034, 1.521e-10
-0.032, 1.493e-10
-0.030, 1.551e-10
-0.028, 1.626e-10
-0.026, 1.649e-10
-0.024, 1.709e-10
-0.022, 1.768e-10
-0.020, 1.930e-10
-0.018, 2.016e-10
-0.016, 1.960e-10
-0.014, 2.066e-10
-0.012, 2.126e-10
-0.010, 2.242e-10
-0.008, 2.239e-10
-0.006, 2.184e-10
-0.004, 2.250e-10
-0.002, 2.339e-10
0.000, 2.392e-10
0.002, 2.265e-10
0.004, 2.434e-10
0.006, 2.587e-10
0.008, 2.585e-10
0.010, 2.632e-10
0.012, 2.661e-10
0.014, 2.632e-10
0.016, 2.705e-10
0.018, 2.717e-10
0.020, 2.923e-10
0.022, 3.038e-10
0.024, 3.104e-10
0.026, 3.159e-10
0.028, 3.169e-10
0.030, 3.137e-10
0.032, 3.043e-10
0.034, 3.178e-10
0.036, 3.170e-10
0.038, 3.248e-10
0.040, 3.417e-10
0.042, 3.604e-10
0.044, 3.776e-10
0.046, 3.718e-10
0.048, 3.772e-10
0.050, 3.779e-10
0.052, 3.881e-10
0.054, 3.852e-10
0.056, 4.294e-10
0.058, 4.157e-10
0.060, 4.292e-10
0.062, 4.265e-10
0.064, 4.324e-10
0.066, 4.390e-10
0.068, 5.386e-10
0.070, 5.923e-10
0.072, 6.326e-10
0.074, 6.459e-10
0.076, 6.363e-10
0.078, 6.460e-10
0.080, 6.549e-10
0.082, 6.859e-10
0.084, 7.135e-10
0.086, 7.569e-10
0.088, 7.725e-10
0.090, 7.779e-10
0.092, 7.646e-10
0.094, 7.738e-10
0.096, 7.932e-10
0.098, 8.080e-10
0.100, 8.552e-10
0.102, 8.650e-10
0.104, 8.648e-10
0.106, 8.740e-10
0.108, 8.755e-10
0.110, 8.911e-10
0.112, 9.080e-10
0.114, 9.201e-10
0.116, 9.208e-10
0.118, 9.298e-10
0.120, 9.411e-10
0.122, 9.431e-10
0.124, 9.605e-10
0.126, 9.680e-10
0.128, 9.782e-10
0.130, 9.757e-10
0.132, 9.830e-10
0.134, 9.980e-10
0.136, 1.001e-9
0.138, 1.005e-9
0.140, 1.016e-9
0.142, 1.026e-9
0.144, 1.040e-9
0.146, 1.035e-9
0.148, 1.030e-9
0.150, 1.041e-9
0.152, 1.051e-9
0.154, 1.070e-9
0.156, 1.078e-9
0.158, 1.098e-9
0.160, 1.099e-9
0.162, 1.111e-9
0.164, 1.109e-9
0.166, 1.128e-9
0.168, 1.136e-9
0.170, 1.142e-9
0.172, 1.138e-9
0.174, 1.155e-9
0.176, 1.163e-9
0.178, 1.168e-9
0.180, 1.160e-9
0.182, 1.171e-9
0.184, 1.193e-9
0.186, 1.204e-9
0.188, 1.216e-9
0.190, 1.234e-9
0.192, 1.231e-9
0.194, 1.240e-9
0.196, 1.240e-9
0.198, 1.245e-9
0.200, 1.253e-9
0.202, 1.250e-9
0.204, 1.260e-9
0.206, 1.273e-9
0.208, 1.286e-9
0.210, 1.298e-9
0.212, 1.309e-9
0.214, 1.309e-9
0.216, 1.308e-9
0.218, 1.321e-9
0.220, 1.322e-9
0.222, 1.323e-9
0.224, 1.339e-9
0.226, 1.346e-9
0.228, 1.343e-9
0.230, 1.355e-9
0.232, 1.349e-9
0.234, 1.353e-9
0.236, 1.366e-9
0.238, 1.369e-9
0.240, 1.373e-9
0.242, 1.402e-9
0.244, 1.406e-9
0.246, 1.411e-9
0.248, 1.420e-9
0.250, 1.422e-9
0.252, 1.424e-9
0.254, 1.434e-9
0.256, 1.444e-9
0.258, 1.451e-9
0.260, 1.459e-9
0.262, 1.469e-9
0.264, 1.488e-9
0.266, 1.491e-9
0.268, 1.499e-9
0.270, 1.501e-9
0.272, 1.511e-9
0.274, 1.512e-9
0.276, 1.539e-9
0.278, 1.542e-9
0.280, 1.560e-9
0.282, 1.558e-9
0.284, 1.568e-9
0.286, 1.580e-9
0.288, 1.592e-9
0.290, 1.602e-9
0.292, 1.611e-9
0.294, 1.619e-9
0.296, 1.635e-9
0.298, 1.640e-9
0.300, 1.657e-9
0.302, 1.669e-9
0.304, 1.687e-9
0.306, 1.683e-9
0.308, 1.705e-9
0.310, 1.710e-9
0.312, 1.725e-9
0.314, 1.731e-9
0.316, 1.746e-9
0.318, 1.758e-9
0.320, 1.771e-9
0.322, 1.780e-9
0.324, 1.790e-9
0.326, 1.803e-9
0.328, 1.810e-9
0.330, 1.820e-9
0.332, 1.827e-9
0.334, 1.845e-9
0.336, 1.854e-9
0.338, 1.866e-9
0.340, 1.876e-9
0.342, 1.889e-9
0.344, 1.902e-9
0.346, 1.909e-9
0.348, 1.917e-9
0.350, 1.936e-9
0.352, 1.937e-9
0.354, 1.946e-9
0.356, 1.960e-9
0.358, 1.974e-9
0.360, 1.982e-9
0.362, 1.999e-9
0.364, 2.009e-9
0.366, 2.025e-9
0.368, 2.035e-9
0.370, 2.060e-9
0.372, 2.056e-9
0.374, 2.070e-9
0.376, 2.081e-9
0.378, 2.104e-9
0.380, 2.117e-9
0.382, 2.125e-9
0.384, 2.126e-9
0.386, 2.148e-9
0.388, 2.158e-9
0.390, 2.169e-9
0.392, 2.187e-9
0.394, 2.197e-9
0.396, 2.211e-9
0.398, 2.224e-9
0.400, 2.234e-9
0.402, 2.241e-9
0.404, 2.249e-9
0.406, 2.256e-9
0.408, 2.269e-9
0.410, 2.274e-9
0.412, 2.287e-9
0.414, 2.293e-9
0.416, 2.305e-9
0.418, 2.319e-9
0.420, 2.333e-9
0.422, 2.343e-9
0.424, 2.351e-9
0.426, 2.370e-9
0.428, 2.382e-9
0.430, 2.389e-9
0.432, 2.403e-9
0.434, 2.407e-9
0.436, 2.434e-9
0.438, 2.443e-9
0.440, 2.459e-9
0.442, 2.465e-9
0.444, 2.476e-9
0.446, 2.485e-9
0.448, 2.490e-9
0.450, 2.504e-9
0.452, 2.516e-9
0.454, 2.523e-9
0.456, 2.543e-9
0.458, 2.563e-9
0.460, 2.564e-9
0.462, 2.573e-9
0.464, 2.588e-9
0.466, 2.607e-9
0.468, 2.616e-9
0.470, 2.628e-9
0.472, 2.637e-9
0.474, 2.658e-9
0.476, 2.669e-9
0.478, 2.675e-9
0.480, 2.681e-9
0.482, 2.691e-9
0.484, 2.707e-9
0.486, 2.714e-9
0.488, 2.726e-9
0.490, 2.735e-9
0.492, 2.746e-9
0.494, 2.756e-9
0.496, 2.770e-9
0.498, 2.772e-9
0.500, 2.765e-9
0.498, 2.611e-9
0.496, 2.543e-9
0.494, 2.468e-9
0.492, 2.434e-9
0.490, 2.379e-9
0.488, 2.337e-9
0.486, 2.289e-9
0.484, 2.248e-9
0.482, 2.216e-9
0.480, 2.178e-9
0.478, 2.147e-9
0.476, 2.118e-9
0.474, 2.100e-9
0.472, 2.064e-9
0.470, 2.047e-9
0.468, 2.015e-9
0.466, 1.999e-9
0.464, 1.965e-9
0.462, 1.954e-9
0.460, 1.926e-9
0.458, 1.904e-9
0.456, 1.878e-9
0.454, 1.859e-9
0.452, 1.836e-9
0.450, 1.823e-9
0.448, 1.800e-9
0.446, 1.785e-9
0.444, 1.757e-9
0.442, 1.747e-9
0.440, 1.723e-9
0.438, 1.709e-9
0.436, 1.687e-9
0.434, 1.671e-9
0.432, 1.651e-9
0.430, 1.632e-9
0.428, 1.619e-9
0.426, 1.597e-9
0.424, 1.585e-9
0.422, 1.561e-9
0.420, 1.553e-9
0.418, 1.527e-9
0.416, 1.517e-9
0.414, 1.494e-9
0.412, 1.487e-9
0.410, 1.463e-9
0.408, 1.460e-9
0.406, 1.436e-9
0.404, 1.427e-9
0.402, 1.403e-9
0.400, 1.390e-9
0.398, 1.371e-9
0.396, 1.354e-9
0.394, 1.341e-9
0.392, 1.322e-9
0.390, 1.308e-9
0.388, 1.288e-9
0.386, 1.279e-9
0.384, 1.259e-9
0.382, 1.251e-9
0.380, 1.230e-9
0.378, 1.220e-9
0.376, 1.198e-9
0.374, 1.188e-9
0.372, 1.163e-9
0.370, 1.154e-9
0.368, 1.139e-9
0.366, 1.124e-9
0.364, 1.113e-9
0.362, 1.096e-9
0.360, 1.088e-9
0.358, 1.068e-9
0.356, 1.059e-9
0.354, 1.039e-9
0.352, 1.031e-9
0.350, 1.015e-9
0.348, 1.006e-9
0.346, 9.906e-10
0.344, 9.751e-10
0.342, 9.635e-10
0.340, 9.447e-10
0.338, 9.346e-10
0.336, 9.169e-10
0.334, 9.068e-10
0.332, 8.902e-10
0.330, 8.806e-10
0.328, 8.667e-10
0.326, 8.536e-10
0.324, 8.377e-10
0.322, 8.261e-10
0.320, 8.119e-10
0.318, 8.025e-10
0.316, 7.856e-10
0.314, 7.777e-10
0.312, 7.628e-10
0.310, 7.543e-10
0.308, 7.401e-10
0.306, 7.312e-10
0.304, 7.153e-10
0.302, 7.045e-10
0.300, 6.914e-10
0.298, 6.805e-10
0.296, 6.695e-10
0.294, 6.593e-10
0.292, 6.491e-10
0.290, 6.370e-10
0.288, 6.256e-10
0.286, 6.133e-10
0.284, 6.038e-10
0.282, 5.934e-10
0.280, 5.843e-10
0.278, 5.736e-10
0.276, 5.630e-10
0.274, 5.488e-10
0.272, 5.418e-10
0.270, 5.286e-10
0.268, 5.230e-10
0.266, 5.080e-10
0.264, 5.012e-10
0.262, 4.893e-10
0.260, 4.795e-10
0.258, 4.689e-10
0.256, 4.534e-10
0.254, 4.469e-10
0.252, 4.303e-10
0.250, 4.255e-10
0.248, 4.106e-10
0.246, 4.071e-10
0.244, 3.940e-10
0.242, 3.883e-10
0.240, 3.770e-10
0.238, 3.682e-10
0.236, 3.601e-10
0.234, 3.503e-10
0.232, 3.421e-10
0.230, 3.307e-10
0.228, 3.251e-10
0.226, 3.140e-10
0.224, 3.082e-10
0.222, 2.983e-10
0.220, 2.886e-10
0.218, 2.810e-10
0.216, 2.707e-10
0.214, 2.647e-10
0.212, 2.530e-10
0.210, 2.498e-10
0.208, 2.331e-10
0.206, 2.316e-10
0.204, 2.147e-10
0.202, 2.136e-10
0.200, 1.984e-10
0.198, 1.953e-10
0.196, 1.807e-10
0.194, 1.761e-10
0.192, 1.664e-10
0.190, 1.596e-10
0.188, 1.518e-10
0.186, 1.437e-10
0.184, 1.392e-10
0.182, 1.289e-10
0.180, 1.256e-10
0.178, 1.129e-10
0.176, 1.109e-10
0.174, 9.635e-11
0.172, 9.479e-11
0.170, 8.017e-11
0.168, 7.871e-11
0.166, 6.467e-11
0.164, 6.233e-11
0.162, 4.742e-11
0.160, 4.586e-11
0.158, 3.270e-11
0.156, 3.153e-11
0.154, 1.564e-11
0.152, 1.622e-11
0.150, 1.306e-12
0.148, -5.459e-13
0.146, -1.566e-11
0.144, -1.614e-11
0.142, -3.135e-11
0.140, -3.310e-11
0.138, -4.685e-11
0.136, -5.475e-11
0.134, -6.167e-11
0.132, -7.005e-11
0.130, -7.600e-11
0.128, -8.643e-11
0.126, -9.042e-11
0.124, -1.004e-10
0.122, -1.039e-10
0.120, -1.132e-10
0.118, -1.168e-10
0.116, -1.265e-10
0.114, -1.317e-10
0.112, -1.417e-10
0.110, -1.466e-10
0.108, -1.559e-10
0.106, -1.613e-10
0.104, -1.708e-10
0.102, -1.767e-10
0.100, -1.865e-10
0.098, -1.918e-10
0.096, -2.000e-10
0.094, -2.054e-10
0.092, -2.141e-10
0.090, -2.190e-10
0.088, -2.270e-10
0.086, -2.358e-10
0.084, -2.451e-10
0.082, -2.517e-10
0.080, -2.595e-10
0.078, -2.695e-10
0.076, -2.768e-10
0.074, -2.855e-10
0.072, -2.936e-10
0.070, -3.025e-10
0.068, -3.090e-10
0.066, -3.183e-10
0.064, -3.225e-10
0.062, -3.310e-10
0.060, -3.372e-10
0.058, -3.457e-10
0.056, -3.515e-10
0.054, -3.571e-10
0.052, -3.654e-10
0.050, -3.723e-10
0.048, -3.815e-10
0.046, -3.886e-10
0.044, -3.996e-10
0.042, -4.021e-10
0.040, -4.164e-10
0.038, -4.179e-10
0.036, -4.314e-10
0.034, -4.342e-10
0.032, -4.483e-10
0.030, -4.515e-10
0.028, -4.654e-10
0.026, -4.703e-10
0.024, -4.815e-10
0.022, -4.874e-10
0.020, -4.999e-10
0.018, -5.083e-10
0.016, -5.191e-10
0.014, -5.292e-10
0.012, -5.395e-10
0.010, -5.492e-10
0.008, -5.590e-10
0.006, -5.695e-10
0.004, -5.757e-10
0.002, -5.895e-10
-0.000, -5.919e-10
-0.002, -6.086e-10
-0.004, -6.106e-10
-0.006, -6.299e-10
-0.008, -6.294e-10
-0.010, -6.509e-10
-0.012, -6.467e-10
-0.014, -6.696e-10
-0.016, -6.678e-10
-0.018, -6.908e-10
-0.020, -6.907e-10
-0.022, -7.090e-10
-0.024, -7.124e-10
-0.026, -7.284e-10
-0.028, -7.375e-10
-0.030, -7.502e-10
-0.032, -7.643e-10
-0.034, -7.743e-10
-0.036, -7.893e-10
-0.038, -7.972e-10
-0.040, -8.110e-10
-0.042, -8.193e-10
-0.044, -8.323e-10
-0.046, -8.428e-10
-0.048, -8.556e-10
-0.050, -8.658e-10
-0.052, -8.806e-10
-0.054, -8.905e-10
-0.056, -9.070e-10
-0.058, -9.173e-10
-0.060, -9.332e-10
-0.062, -9.422e-10
-0.064, -9.588e-10
-0.066, -9.673e-10
-0.068, -9.881e-10
-0.070, -9.982e-10
-0.072, -1.021e-9
-0.074, -1.028e-9
-0.076, -1.051e-9
-0.078, -1.057e-9
-0.080, -1.078e-9
-0.082, -1.086e-9
-0.084, -1.107e-9
-0.086, -1.115e-9
-0.088, -1.137e-9
-0.090, -1.145e-9
-0.092, -1.166e-9
-0.094, -1.177e-9
-0.096, -1.197e-9
-0.098, -1.211e-9
-0.100, -1.230e-9
-0.102, -1.249e-9
-0.104, -1.264e-9
-0.106, -1.285e-9
-0.108, -1.298e-9
-0.110, -1.320e-9
-0.112, -1.328e-9
-0.114, -1.353e-9
-0.116, -1.361e-9
-0.118, -1.387e-9
-0.120, -1.398e-9
-0.122, -1.422e-9
-0.124, -1.434e-9
-0.126, -1.457e-9
-0.128, -1.471e-9
-0.130, -1.495e-9
-0.132, -1.513e-9
-0.134, -1.533e-9
-0.136, -1.552e-9
-0.138, -1.569e-9
-0.140, -1.589e-9
-0.142, -1.605e-9
-0.144, -1.627e-9
-0.146, -1.642e-9
-0.148, -1.666e-9
-0.150, -1.677e-9
-0.152, -1.705e-9
-0.154, -1.717e-9
-0.156, -1.748e-9
-0.158, -1.762e-9
-0.160, -1.788e-9
-0.162, -1.801e-9
-0.164, -1.826e-9
-0.166, -1.840e-9
-0.168, -1.867e-9
-0.170, -1.884e-9
-0.172, -1.909e-9
-0.174, -1.926e-9
-0.176, -1.949e-9
-0.178, -1.965e-9
-0.180, -1.991e-9
-0.182, -2.009e-9
-0.184, -2.033e-9
-0.186, -2.049e-9
-0.188, -2.074e-9
-0.190, -2.093e-9
-0.192, -2.116e-9
-0.194, -2.139e-9
-0.196, -2.160e-9
-0.198, -2.184e-9
-0.200, -2.203e-9
-0.202, -2.225e-9
-0.204, -2.247e-9
-0.206, -2.270e-9
-0.208, -2.291e-9
-0.210, -2.311e-9
-0.212, -2.333e-9
-0.214, -2.355e-9
-0.216, -2.378e-9
-0.218, -2.397e-9
-0.220, -2.419e-9
-0.222, -2.441e-9
-0.224, -2.460e-9
-0.226, -2.485e-9
-0.228, -2.507e-9
-0.230, -2.528e-9
-0.232, -2.542e-9
-0.234, -2.569e-9
-0.236, -2.588e-9
-0.238, -2.617e-9
-0.240, -2.633e-9
-0.242, -2.657e-9
-0.244, -2.676e-9
-0.246, -2.705e-9
-0.248, -2.724e-9
-0.250, -2.751e-9
-0.252, -2.770e-9
-0.254, -2.795e-9
-0.256, -2.814e-9
-0.258, -2.844e-9
-0.260, -2.865e-9
-0.262, -2.886e-9
-0.264, -2.907e-9
-0.266, -2.930e-9
-0.268, -2.949e-9
-0.270, -2.975e-9
-0.272, -2.995e-9
-0.274, -3.021e-9
-0.276, -3.044e-9
-0.278, -3.069e-9
-0.280, -3.092e-9
-0.282, -3.115e-9
-0.284, -3.132e-9
-0.286, -3.164e-9
-0.288, -3.183e-9
-0.290, -3.214e-9
-0.292, -3.234e-9
-0.294, -3.258e-9
-0.296, -3.280e-9
-0.298, -3.307e-9
-0.300, -3.331e-9
-0.302, -3.356e-9
-0.304, -3.380e-9
-0.306, -3.407e-9
-0.308, -3.434e-9
-0.310, -3.459e-9
-0.312, -3.479e-9
-0.314, -3.504e-9
-0.316, -3.522e-9
-0.318, -3.547e-9
-0.320, -3.573e-9
-0.322, -3.602e-9
-0.324, -3.626e-9
-0.326, -3.655e-9
-0.328, -3.681e-9
-0.330, -3.710e-9
-0.332, -3.734e-9
-0.334, -3.757e-9
-0.336, -3.786e-9
-0.338, -3.808e-9
-0.340, -3.838e-9
-0.342, -3.856e-9
-0.344, -3.888e-9
-0.346, -3.904e-9
-0.348, -3.943e-9
-0.350, -3.962e-9
-0.352, -3.996e-9
-0.354, -4.015e-9
-0.356, -4.050e-9
-0.358, -4.070e-9
-0.360, -4.107e-9
-0.362, -4.132e-9
-0.364, -4.172e-9
-0.366, -4.192e-9
-0.368, -4.228e-9
-0.370, -4.255e-9
-0.372, -4.284e-9
-0.374, -4.314e-9
-0.376, -4.349e-9
-0.378, -4.382e-9
-0.380, -4.410e-9
-0.382, -4.441e-9
-0.384, -4.465e-9
-0.386, -4.498e-9
-0.388, -4.528e-9
-0.390, -4.565e-9
-0.392, -4.590e-9
-0.394, -4.632e-9
-0.396, -4.655e-9
-0.398, -4.697e-9
-0.400, -4.717e-9
-0.402, -4.751e-9
-0.404, -4.770e-9
-0.406, -4.810e-9
-0.408, -4.835e-9
-0.410, -4.873e-9
-0.412, -4.897e-9
-0.414, -4.932e-9
-0.416, -4.959e-9
-0.418, -4.984e-9
-0.420, -5.006e-9
-0.422, -5.034e-9
-0.424, -5.065e-9
-0.426, -5.106e-9
-0.428, -5.135e-9
-0.430, -5.164e-9
-0.432, -5.199e-9
-0.434, -5.225e-9
-0.436, -5.254e-9
-0.438, -5.288e-9
-0.440, -5.322e-9
-0.442, -5.344e-9
-0.444, -5.379e-9
-0.446, -5.407e-9
-0.448, -5.445e-9
-0.450, -5.469e-9
-0.452, -5.505e-9
-0.454, -5.534e-9
-0.456, -5.565e-9
-0.458, -5.598e-9
-0.460, -5.635e-9
-0.462, -5.666e-9
-0.464, -5.693e-9
-0.466, -5.713e-9
-0.468, -5.749e-9
-0.470, -5.776e-9
-0.472, -5.802e-9
-0.474, -5.824e-9
-0.476, -5.857e-9
-0.478, -5.881e-9
-0.480, -5.914e-9
-0.482, -5.941e-9
-0.484, -5.981e-9
-0.486, -6.015e-9
-0.488, -6.045e-9
-0.490, -6.070e-9
-0.492, -6.102e-9
-0.494, -6.138e-9
-0.496, -6.163e-9
-0.498, -6.190e-9
-0.499, -6.202e-9