File: Fig 4/Fig 3c CV surface dark/CV_surface_dark_7.txt
Nov. 20, 2024   15:54:28
Cyclic Voltammetry
File: +12 2319-1 fto cv_cells_dark_surface_7.bin
Data Source:  Experiment
Instrument Model:  CHI920C
Ref. Electrode:
Header:
Note:

Init E (V) = -0.5
High E (V) = 0.5
Low E (V) = -0.5
Init P/N = P
Scan Rate (V/s) = 0.05
Segment = 2
Sample Interval (V) = 0.001
Quiet Time (sec) = 10
Sensitivity (A/V) = 1e-7

Results:

Channel 1:
Segment 1:
Ep = 0.122V
ip = 2.325e-9A
Ah = 5.358e-10C

Segment 2:

Potential/V, Current/A

-0.500, -1.322e-9
-0.498, -1.195e-9
-0.496, -1.129e-9
-0.494, -1.080e-9
-0.492, -1.039e-9
-0.490, -1.001e-9
-0.488, -9.655e-10
-0.486, -9.361e-10
-0.484, -9.100e-10
-0.482, -8.858e-10
-0.480, -8.614e-10
-0.478, -8.412e-10
-0.476, -8.222e-10
-0.474, -8.043e-10
-0.472, -7.856e-10
-0.470, -7.645e-10
-0.468, -7.438e-10
-0.466, -7.256e-10
-0.464, -7.078e-10
-0.462, -6.913e-10
-0.460, -6.761e-10
-0.458, -6.583e-10
-0.456, -6.418e-10
-0.454, -6.262e-10
-0.452, -6.105e-10
-0.450, -5.956e-10
-0.448, -5.823e-10
-0.446, -5.701e-10
-0.444, -5.551e-10
-0.442, -5.405e-10
-0.440, -5.241e-10
-0.438, -5.073e-10
-0.436, -4.913e-10
-0.434, -4.760e-10
-0.432, -4.634e-10
-0.430, -4.499e-10
-0.428, -4.344e-10
-0.426, -4.234e-10
-0.424, -4.092e-10
-0.422, -3.973e-10
-0.420, -3.822e-10
-0.418, -3.705e-10
-0.416, -3.577e-10
-0.414, -3.467e-10
-0.412, -3.359e-10
-0.410, -3.241e-10
-0.408, -3.122e-10
-0.406, -2.991e-10
-0.404, -2.855e-10
-0.402, -2.698e-10
-0.400, -2.580e-10
-0.398, -2.438e-10
-0.396, -2.315e-10
-0.394, -2.189e-10
-0.392, -2.057e-10
-0.390, -1.950e-10
-0.388, -1.826e-10
-0.386, -1.710e-10
-0.384, -1.596e-10
-0.382, -1.475e-10
-0.380, -1.365e-10
-0.378, -1.254e-10
-0.376, -1.140e-10
-0.374, -1.042e-10
-0.372, -9.189e-11
-0.370, -8.087e-11
-0.368, -6.986e-11
-0.366, -5.777e-11
-0.364, -4.480e-11
-0.362, -3.252e-11
-0.360, -1.829e-11
-0.358, -6.492e-12
-0.356, 7.058e-12
-0.354, 1.768e-11
-0.352, 2.811e-11
-0.350, 4.010e-11
-0.348, 5.122e-11
-0.346, 6.438e-11
-0.344, 7.471e-11
-0.342, 8.553e-11
-0.340, 9.625e-11
-0.338, 1.079e-10
-0.336, 1.200e-10
-0.334, 1.295e-10
-0.332, 1.387e-10
-0.330, 1.496e-10
-0.328, 1.592e-10
-0.326, 1.697e-10
-0.324, 1.786e-10
-0.322, 1.895e-10
-0.320, 2.024e-10
-0.318, 2.138e-10
-0.316, 2.278e-10
-0.314, 2.402e-10
-0.312, 2.519e-10
-0.310, 2.621e-10
-0.308, 2.745e-10
-0.306, 2.893e-10
-0.304, 2.973e-10
-0.302, 3.091e-10
-0.300, 3.197e-10
-0.298, 3.311e-10
-0.296, 3.408e-10
-0.294, 3.531e-10
-0.292, 3.623e-10
-0.290, 3.737e-10
-0.288, 3.837e-10
-0.286, 3.944e-10
-0.284, 4.053e-10
-0.282, 4.170e-10
-0.280, 4.291e-10
-0.278, 4.403e-10
-0.276, 4.549e-10
-0.274, 4.674e-10
-0.272, 4.799e-10
-0.270, 4.936e-10
-0.268, 5.050e-10
-0.266, 5.176e-10
-0.264, 5.304e-10
-0.262, 5.420e-10
-0.260, 5.533e-10
-0.258, 5.651e-10
-0.256, 5.746e-10
-0.254, 5.880e-10
-0.252, 5.987e-10
-0.250, 6.108e-10
-0.248, 6.214e-10
-0.246, 6.322e-10
-0.244, 6.432e-10
-0.242, 6.544e-10
-0.240, 6.654e-10
-0.238, 6.766e-10
-0.236, 6.884e-10
-0.234, 7.010e-10
-0.232, 7.149e-10
-0.230, 7.265e-10
-0.228, 7.392e-10
-0.226, 7.478e-10
-0.224, 7.587e-10
-0.222, 7.711e-10
-0.220, 7.814e-10
-0.218, 7.923e-10
-0.216, 8.042e-10
-0.214, 8.171e-10
-0.212, 8.286e-10
-0.210, 8.415e-10
-0.208, 8.540e-10
-0.206, 8.654e-10
-0.204, 8.759e-10
-0.202, 8.879e-10
-0.200, 8.993e-10
-0.198, 9.142e-10
-0.196, 9.256e-10
-0.194, 9.376e-10
-0.192, 9.490e-10
-0.190, 9.621e-10
-0.188, 9.755e-10
-0.186, 9.868e-10
-0.184, 9.982e-10
-0.182, 1.007e-9
-0.180, 1.020e-9
-0.178, 1.031e-9
-0.176, 1.041e-9
-0.174, 1.054e-9
-0.172, 1.065e-9
-0.170, 1.078e-9
-0.168, 1.089e-9
-0.166, 1.099e-9
-0.164, 1.112e-9
-0.162, 1.122e-9
-0.160, 1.133e-9
-0.158, 1.143e-9
-0.156, 1.154e-9
-0.154, 1.165e-9
-0.152, 1.178e-9
-0.150, 1.192e-9
-0.148, 1.204e-9
-0.146, 1.216e-9
-0.144, 1.230e-9
-0.142, 1.241e-9
-0.140, 1.252e-9
-0.138, 1.263e-9
-0.136, 1.276e-9
-0.134, 1.286e-9
-0.132, 1.299e-9
-0.130, 1.309e-9
-0.128, 1.321e-9
-0.126, 1.331e-9
-0.124, 1.344e-9
-0.122, 1.356e-9
-0.120, 1.369e-9
-0.118, 1.380e-9
-0.116, 1.393e-9
-0.114, 1.405e-9
-0.112, 1.418e-9
-0.110, 1.429e-9
-0.108, 1.440e-9
-0.106, 1.453e-9
-0.104, 1.465e-9
-0.102, 1.482e-9
-0.100, 1.490e-9
-0.098, 1.500e-9
-0.096, 1.511e-9
-0.094, 1.522e-9
-0.092, 1.533e-9
-0.090, 1.544e-9
-0.088, 1.556e-9
-0.086, 1.567e-9
-0.084, 1.579e-9
-0.082, 1.592e-9
-0.080, 1.602e-9
-0.078, 1.615e-9
-0.076, 1.624e-9
-0.074, 1.635e-9
-0.072, 1.647e-9
-0.070, 1.662e-9
-0.068, 1.671e-9
-0.066, 1.683e-9
-0.064, 1.696e-9
-0.062, 1.709e-9
-0.060, 1.720e-9
-0.058, 1.731e-9
-0.056, 1.742e-9
-0.054, 1.752e-9
-0.052, 1.764e-9
-0.050, 1.775e-9
-0.048, 1.786e-9
-0.046, 1.800e-9
-0.044, 1.812e-9
-0.042, 1.824e-9
-0.040, 1.835e-9
-0.038, 1.847e-9
-0.036, 1.859e-9
-0.034, 1.869e-9
-0.032, 1.881e-9
-0.030, 1.893e-9
-0.028, 1.905e-9
-0.026, 1.918e-9
-0.024, 1.930e-9
-0.022, 1.941e-9
-0.020, 1.954e-9
-0.018, 1.967e-9
-0.016, 1.976e-9
-0.014, 1.988e-9
-0.012, 2.001e-9
-0.010, 2.012e-9
-0.008, 2.023e-9
-0.006, 2.036e-9
-0.004, 2.049e-9
-0.002, 2.059e-9
0.000, 2.068e-9
0.002, 2.079e-9
0.004, 2.091e-9
0.006, 2.102e-9
0.008, 2.112e-9
0.010, 2.125e-9
0.012, 2.136e-9
0.014, 2.149e-9
0.016, 2.161e-9
0.018, 2.175e-9
0.020, 2.191e-9
0.022, 2.202e-9
0.024, 2.213e-9
0.026, 2.225e-9
0.028, 2.239e-9
0.030, 2.252e-9
0.032, 2.264e-9
0.034, 2.277e-9
0.036, 2.289e-9
0.038, 2.303e-9
0.040, 2.315e-9
0.042, 2.326e-9
0.044, 2.339e-9
0.046, 2.353e-9
0.048, 2.365e-9
0.050, 2.377e-9
0.052, 2.388e-9
0.054, 2.404e-9
0.056, 2.416e-9
0.058, 2.429e-9
0.060, 2.443e-9
0.062, 2.455e-9
0.064, 2.470e-9
0.066, 2.481e-9
0.068, 2.494e-9
0.070, 2.510e-9
0.072, 2.524e-9
0.074, 2.538e-9
0.076, 2.552e-9
0.078, 2.564e-9
0.080, 2.577e-9
0.082, 2.592e-9
0.084, 2.605e-9
0.086, 2.619e-9
0.088, 2.636e-9
0.090, 2.651e-9
0.092, 2.672e-9
0.094, 2.691e-9
0.096, 2.710e-9
0.098, 2.730e-9
0.100, 2.756e-9
0.102, 2.795e-9
0.104, 2.854e-9
0.106, 2.937e-9
0.108, 3.059e-9
0.110, 3.244e-9
0.112, 3.498e-9
0.114, 3.831e-9
0.116, 4.191e-9
0.118, 4.627e-9
0.120, 4.926e-9
0.122, 5.075e-9
0.124, 4.982e-9
0.126, 4.771e-9
0.128, 4.495e-9
0.130, 4.239e-9
0.132, 4.001e-9
0.134, 3.746e-9
0.136, 3.536e-9
0.138, 3.367e-9
0.140, 3.248e-9
0.142, 3.160e-9
0.144, 3.099e-9
0.146, 3.072e-9
0.148, 3.056e-9
0.150, 3.048e-9
0.152, 3.041e-9
0.154, 3.035e-9
0.156, 3.037e-9
0.158, 3.039e-9
0.160, 3.041e-9
0.162, 3.044e-9
0.164, 3.047e-9
0.166, 3.053e-9
0.168, 3.055e-9
0.170, 3.059e-9
0.172, 3.065e-9
0.174, 3.069e-9
0.176, 3.076e-9
0.178, 3.082e-9
0.180, 3.085e-9
0.182, 3.091e-9
0.184, 3.097e-9
0.186, 3.100e-9
0.188, 3.105e-9
0.190, 3.113e-9
0.192, 3.117e-9
0.194, 3.126e-9
0.196, 3.130e-9
0.198, 3.138e-9
0.200, 3.146e-9
0.202, 3.150e-9
0.204, 3.157e-9
0.206, 3.159e-9
0.208, 3.168e-9
0.210, 3.172e-9
0.212, 3.180e-9
0.214, 3.186e-9
0.216, 3.190e-9
0.218, 3.196e-9
0.220, 3.204e-9
0.222, 3.210e-9
0.224, 3.215e-9
0.226, 3.221e-9
0.228, 3.225e-9
0.230, 3.230e-9
0.232, 3.238e-9
0.234, 3.241e-9
0.236, 3.248e-9
0.238, 3.253e-9
0.240, 3.255e-9
0.242, 3.263e-9
0.244, 3.267e-9
0.246, 3.272e-9
0.248, 3.276e-9
0.250, 3.282e-9
0.252, 3.287e-9
0.254, 3.292e-9
0.256, 3.297e-9
0.258, 3.302e-9
0.260, 3.306e-9
0.262, 3.312e-9
0.264, 3.317e-9
0.266, 3.321e-9
0.268, 3.326e-9
0.270, 3.331e-9
0.272, 3.334e-9
0.274, 3.340e-9
0.276, 3.346e-9
0.278, 3.352e-9
0.280, 3.357e-9
0.282, 3.362e-9
0.284, 3.369e-9
0.286, 3.375e-9
0.288, 3.382e-9
0.290, 3.389e-9
0.292, 3.396e-9
0.294, 3.406e-9
0.296, 3.411e-9
0.298, 3.416e-9
0.300, 3.423e-9
0.302, 3.432e-9
0.304, 3.435e-9
0.306, 3.444e-9
0.308, 3.455e-9
0.310, 3.462e-9
0.312, 3.469e-9
0.314, 3.476e-9
0.316, 3.482e-9
0.318, 3.488e-9
0.320, 3.497e-9
0.322, 3.505e-9
0.324, 3.513e-9
0.326, 3.519e-9
0.328, 3.528e-9
0.330, 3.535e-9
0.332, 3.542e-9
0.334, 3.551e-9
0.336, 3.558e-9
0.338, 3.565e-9
0.340, 3.573e-9
0.342, 3.579e-9
0.344, 3.586e-9
0.346, 3.596e-9
0.348, 3.606e-9
0.350, 3.614e-9
0.352, 3.626e-9
0.354, 3.634e-9
0.356, 3.646e-9
0.358, 3.653e-9
0.360, 3.664e-9
0.362, 3.675e-9
0.364, 3.685e-9
0.366, 3.697e-9
0.368, 3.705e-9
0.370, 3.715e-9
0.372, 3.725e-9
0.374, 3.736e-9
0.376, 3.743e-9
0.378, 3.754e-9
0.380, 3.765e-9
0.382, 3.775e-9
0.384, 3.784e-9
0.386, 3.794e-9
0.388, 3.804e-9
0.390, 3.813e-9
0.392, 3.823e-9
0.394, 3.832e-9
0.396, 3.842e-9
0.398, 3.852e-9
0.400, 3.864e-9
0.402, 3.874e-9
0.404, 3.887e-9
0.406, 3.899e-9
0.408, 3.909e-9
0.410, 3.913e-9
0.412, 3.928e-9
0.414, 3.940e-9
0.416, 3.952e-9
0.418, 3.967e-9
0.420, 3.977e-9
0.422, 3.990e-9
0.424, 4.000e-9
0.426, 4.012e-9
0.428, 4.023e-9
0.430, 4.035e-9
0.432, 4.045e-9
0.434, 4.058e-9
0.436, 4.068e-9
0.438, 4.080e-9
0.440, 4.094e-9
0.442, 4.107e-9
0.444, 4.121e-9
0.446, 4.134e-9
0.448, 4.148e-9
0.450, 4.164e-9
0.452, 4.177e-9
0.454, 4.192e-9
0.456, 4.203e-9
0.458, 4.218e-9
0.460, 4.231e-9
0.462, 4.242e-9
0.464, 4.257e-9
0.466, 4.270e-9
0.468, 4.285e-9
0.470, 4.297e-9
0.472, 4.310e-9
0.474, 4.320e-9
0.476, 4.336e-9
0.478, 4.348e-9
0.480, 4.368e-9
0.482, 4.383e-9
0.484, 4.396e-9
0.486, 4.411e-9
0.488, 4.426e-9
0.490, 4.441e-9
0.492, 4.457e-9
0.494, 4.472e-9
0.496, 4.488e-9
0.498, 4.504e-9
0.500, 4.483e-9
0.498, 4.212e-9
0.496, 4.052e-9
0.494, 3.931e-9
0.492, 3.825e-9
0.490, 3.731e-9
0.488, 3.639e-9
0.486, 3.560e-9
0.484, 3.486e-9
0.482, 3.413e-9
0.480, 3.344e-9
0.478, 3.283e-9
0.476, 3.224e-9
0.474, 3.162e-9
0.472, 3.102e-9
0.470, 3.052e-9
0.468, 3.000e-9
0.466, 2.948e-9
0.464, 2.902e-9
0.462, 2.854e-9
0.460, 2.813e-9
0.458, 2.768e-9
0.456, 2.725e-9
0.454, 2.681e-9
0.452, 2.637e-9
0.450, 2.597e-9
0.448, 2.563e-9
0.446, 2.525e-9
0.444, 2.488e-9
0.442, 2.452e-9
0.440, 2.417e-9
0.438, 2.382e-9
0.436, 2.347e-9
0.434, 2.314e-9
0.432, 2.279e-9
0.430, 2.248e-9
0.428, 2.217e-9
0.426, 2.186e-9
0.424, 2.153e-9
0.422, 2.122e-9
0.420, 2.093e-9
0.418, 2.068e-9
0.416, 2.039e-9
0.414, 2.011e-9
0.412, 1.985e-9
0.410, 1.958e-9
0.408, 1.934e-9
0.406, 1.905e-9
0.404, 1.875e-9
0.402, 1.849e-9
0.400, 1.822e-9
0.398, 1.797e-9
0.396, 1.770e-9
0.394, 1.745e-9
0.392, 1.721e-9
0.390, 1.697e-9
0.388, 1.669e-9
0.386, 1.645e-9
0.384, 1.622e-9
0.382, 1.601e-9
0.380, 1.578e-9
0.378, 1.554e-9
0.376, 1.529e-9
0.374, 1.507e-9
0.372, 1.485e-9
0.370, 1.464e-9
0.368, 1.442e-9
0.366, 1.418e-9
0.364, 1.396e-9
0.362, 1.375e-9
0.360, 1.353e-9
0.358, 1.331e-9
0.356, 1.309e-9
0.354, 1.287e-9
0.352, 1.267e-9
0.350, 1.247e-9
0.348, 1.227e-9
0.346, 1.206e-9
0.344, 1.184e-9
0.342, 1.163e-9
0.340, 1.144e-9
0.338, 1.125e-9
0.336, 1.109e-9
0.334, 1.090e-9
0.332, 1.072e-9
0.330, 1.051e-9
0.328, 1.031e-9
0.326, 1.013e-9
0.324, 9.961e-10
0.322, 9.769e-10
0.320, 9.579e-10
0.318, 9.390e-10
0.316, 9.193e-10
0.314, 8.998e-10
0.312, 8.830e-10
0.310, 8.647e-10
0.308, 8.457e-10
0.306, 8.247e-10
0.304, 8.082e-10
0.302, 7.900e-10
0.300, 7.742e-10
0.298, 7.577e-10
0.296, 7.404e-10
0.294, 7.222e-10
0.292, 7.041e-10
0.290, 6.857e-10
0.288, 6.671e-10
0.286, 6.513e-10
0.284, 6.363e-10
0.282, 6.202e-10
0.280, 6.032e-10
0.278, 5.870e-10
0.276, 5.694e-10
0.274, 5.538e-10
0.272, 5.345e-10
0.270, 5.185e-10
0.268, 5.023e-10
0.266, 4.839e-10
0.264, 4.640e-10
0.262, 4.449e-10
0.260, 4.269e-10
0.258, 4.106e-10
0.256, 3.966e-10
0.254, 3.820e-10
0.252, 3.670e-10
0.250, 3.516e-10
0.248, 3.352e-10
0.246, 3.198e-10
0.244, 3.035e-10
0.242, 2.883e-10
0.240, 2.741e-10
0.238, 2.576e-10
0.236, 2.413e-10
0.234, 2.240e-10
0.232, 2.078e-10
0.230, 1.902e-10
0.228, 1.739e-10
0.226, 1.601e-10
0.224, 1.455e-10
0.222, 1.312e-10
0.220, 1.164e-10
0.218, 1.018e-10
0.216, 8.504e-11
0.214, 6.906e-11
0.212, 5.385e-11
0.210, 3.786e-11
0.208, 2.265e-11
0.206, 4.718e-12
0.204, -5.907e-12
0.202, -2.677e-11
0.200, -4.597e-11
0.198, -6.430e-11
0.196, -7.990e-11
0.194, -9.452e-11
0.192, -1.085e-10
0.190, -1.257e-10
0.188, -1.401e-10
0.186, -1.562e-10
0.184, -1.734e-10
0.182, -1.908e-10
0.180, -2.042e-10
0.178, -2.218e-10
0.176, -2.389e-10
0.174, -2.579e-10
0.172, -2.788e-10
0.170, -2.948e-10
0.168, -3.138e-10
0.166, -3.286e-10
0.164, -3.450e-10
0.162, -3.605e-10
0.160, -3.769e-10
0.158, -3.944e-10
0.156, -4.127e-10
0.154, -4.305e-10
0.152, -4.468e-10
0.150, -4.651e-10
0.148, -4.840e-10
0.146, -5.036e-10
0.144, -5.261e-10
0.142, -5.458e-10
0.140, -5.644e-10
0.138, -5.826e-10
0.136, -5.996e-10
0.134, -6.178e-10
0.132, -6.378e-10
0.130, -6.571e-10
0.128, -6.763e-10
0.126, -6.946e-10
0.124, -7.142e-10
0.122, -7.336e-10
0.120, -7.561e-10
0.118, -7.766e-10
0.116, -7.980e-10
0.114, -8.159e-10
0.112, -8.332e-10
0.110, -8.515e-10
0.108, -8.710e-10
0.106, -8.925e-10
0.104, -9.127e-10
0.102, -9.388e-10
0.100, -9.577e-10
0.098, -9.787e-10
0.096, -1.002e-9
0.094, -1.024e-9
0.092, -1.046e-9
0.090, -1.066e-9
0.088, -1.086e-9
0.086, -1.106e-9
0.084, -1.128e-9
0.082, -1.149e-9
0.080, -1.170e-9
0.078, -1.190e-9
0.076, -1.211e-9
0.074, -1.234e-9
0.072, -1.258e-9
0.070, -1.282e-9
0.068, -1.302e-9
0.066, -1.319e-9
0.064, -1.339e-9
0.062, -1.359e-9
0.060, -1.378e-9
0.058, -1.400e-9
0.056, -1.421e-9
0.054, -1.439e-9
0.052, -1.462e-9
0.050, -1.483e-9
0.048, -1.506e-9
0.046, -1.527e-9
0.044, -1.546e-9
0.042, -1.565e-9
0.040, -1.584e-9
0.038, -1.601e-9
0.036, -1.620e-9
0.034, -1.641e-9
0.032, -1.658e-9
0.030, -1.675e-9
0.028, -1.692e-9
0.026, -1.710e-9
0.024, -1.731e-9
0.022, -1.750e-9
0.020, -1.769e-9
0.018, -1.785e-9
0.016, -1.801e-9
0.014, -1.818e-9
0.012, -1.833e-9
0.010, -1.852e-9
0.008, -1.869e-9
0.006, -1.886e-9
0.004, -1.900e-9
0.002, -1.915e-9
-0.000, -1.927e-9
-0.002, -1.942e-9
-0.004, -1.958e-9
-0.006, -1.975e-9
-0.008, -1.989e-9
-0.010, -2.004e-9
-0.012, -2.019e-9
-0.014, -2.033e-9
-0.016, -2.048e-9
-0.018, -2.064e-9
-0.020, -2.083e-9
-0.022, -2.103e-9
-0.024, -2.126e-9
-0.026, -2.149e-9
-0.028, -2.173e-9
-0.030, -2.202e-9
-0.032, -2.235e-9
-0.034, -2.259e-9
-0.036, -2.290e-9
-0.038, -2.326e-9
-0.040, -2.361e-9
-0.042, -2.395e-9
-0.044, -2.432e-9
-0.046, -2.467e-9
-0.048, -2.507e-9
-0.050, -2.546e-9
-0.052, -2.563e-9
-0.054, -2.601e-9
-0.056, -2.601e-9
-0.058, -2.623e-9
-0.060, -2.612e-9
-0.062, -2.603e-9
-0.064, -2.573e-9
-0.066, -2.560e-9
-0.068, -2.553e-9
-0.070, -2.530e-9
-0.072, -2.496e-9
-0.074, -2.486e-9
-0.076, -2.480e-9
-0.078, -2.429e-9
-0.080, -2.430e-9
-0.082, -2.431e-9
-0.084, -2.420e-9
-0.086, -2.421e-9
-0.088, -2.426e-9
-0.090, -2.411e-9
-0.092, -2.428e-9
-0.094, -2.421e-9
-0.096, -2.424e-9
-0.098, -2.428e-9
-0.100, -2.429e-9
-0.102, -2.415e-9
-0.104, -2.421e-9
-0.106, -2.429e-9
-0.108, -2.434e-9
-0.110, -2.453e-9
-0.112, -2.441e-9
-0.114, -2.456e-9
-0.116, -2.451e-9
-0.118, -2.443e-9
-0.120, -2.450e-9
-0.122, -2.453e-9
-0.124, -2.466e-9
-0.126, -2.475e-9
-0.128, -2.476e-9
-0.130, -2.491e-9
-0.132, -2.481e-9
-0.134, -2.490e-9
-0.136, -2.495e-9
-0.138, -2.492e-9
-0.140, -2.499e-9
-0.142, -2.506e-9
-0.144, -2.508e-9
-0.146, -2.514e-9
-0.148, -2.516e-9
-0.150, -2.525e-9
-0.152, -2.531e-9
-0.154, -2.533e-9
-0.156, -2.536e-9
-0.158, -2.543e-9
-0.160, -2.552e-9
-0.162, -2.564e-9
-0.164, -2.562e-9
-0.166, -2.567e-9
-0.168, -2.572e-9
-0.170, -2.575e-9
-0.172, -2.581e-9
-0.174, -2.586e-9
-0.176, -2.593e-9
-0.178, -2.604e-9
-0.180, -2.606e-9
-0.182, -2.609e-9
-0.184, -2.616e-9
-0.186, -2.620e-9
-0.188, -2.627e-9
-0.190, -2.633e-9
-0.192, -2.637e-9
-0.194, -2.644e-9
-0.196, -2.646e-9
-0.198, -2.651e-9
-0.200, -2.656e-9
-0.202, -2.664e-9
-0.204, -2.671e-9
-0.206, -2.673e-9
-0.208, -2.679e-9
-0.210, -2.687e-9
-0.212, -2.696e-9
-0.214, -2.702e-9
-0.216, -2.706e-9
-0.218, -2.711e-9
-0.220, -2.717e-9
-0.222, -2.724e-9
-0.224, -2.731e-9
-0.226, -2.736e-9
-0.228, -2.742e-9
-0.230, -2.749e-9
-0.232, -2.754e-9
-0.234, -2.759e-9
-0.236, -2.764e-9
-0.238, -2.771e-9
-0.240, -2.775e-9
-0.242, -2.781e-9
-0.244, -2.785e-9
-0.246, -2.787e-9
-0.248, -2.795e-9
-0.250, -2.801e-9
-0.252, -2.807e-9
-0.254, -2.814e-9
-0.256, -2.819e-9
-0.258, -2.823e-9
-0.260, -2.829e-9
-0.262, -2.835e-9
-0.264, -2.842e-9
-0.266, -2.846e-9
-0.268, -2.852e-9
-0.270, -2.856e-9
-0.272, -2.861e-9
-0.274, -2.867e-9
-0.276, -2.873e-9
-0.278, -2.876e-9
-0.280, -2.882e-9
-0.282, -2.885e-9
-0.284, -2.890e-9
-0.286, -2.894e-9
-0.288, -2.899e-9
-0.290, -2.904e-9
-0.292, -2.906e-9
-0.294, -2.912e-9
-0.296, -2.916e-9
-0.298, -2.919e-9
-0.300, -2.925e-9
-0.302, -2.931e-9
-0.304, -2.931e-9
-0.306, -2.936e-9
-0.308, -2.945e-9
-0.310, -2.947e-9
-0.312, -2.951e-9
-0.314, -2.955e-9
-0.316, -2.957e-9
-0.318, -2.962e-9
-0.320, -2.964e-9
-0.322, -2.968e-9
-0.324, -2.972e-9
-0.326, -2.977e-9
-0.328, -2.980e-9
-0.330, -2.984e-9
-0.332, -2.987e-9
-0.334, -2.988e-9
-0.336, -2.995e-9
-0.338, -2.998e-9
-0.340, -3.001e-9
-0.342, -3.004e-9
-0.344, -3.006e-9
-0.346, -3.009e-9
-0.348, -3.012e-9
-0.350, -3.015e-9
-0.352, -3.019e-9
-0.354, -3.021e-9
-0.356, -3.024e-9
-0.358, -3.027e-9
-0.360, -3.029e-9
-0.362, -3.033e-9
-0.364, -3.036e-9
-0.366, -3.039e-9
-0.368, -3.041e-9
-0.370, -3.045e-9
-0.372, -3.049e-9
-0.374, -3.052e-9
-0.376, -3.055e-9
-0.378, -3.061e-9
-0.380, -3.063e-9
-0.382, -3.066e-9
-0.384, -3.068e-9
-0.386, -3.070e-9
-0.388, -3.074e-9
-0.390, -3.078e-9
-0.392, -3.081e-9
-0.394, -3.085e-9
-0.396, -3.088e-9
-0.398, -3.091e-9
-0.400, -3.094e-9
-0.402, -3.096e-9
-0.404, -3.100e-9
-0.406, -3.105e-9
-0.408, -3.108e-9
-0.410, -3.112e-9
-0.412, -3.116e-9
-0.414, -3.120e-9
-0.416, -3.122e-9
-0.418, -3.127e-9
-0.420, -3.128e-9
-0.422, -3.133e-9
-0.424, -3.139e-9
-0.426, -3.141e-9
-0.428, -3.145e-9
-0.430, -3.149e-9
-0.432, -3.149e-9
-0.434, -3.155e-9
-0.436, -3.157e-9
-0.438, -3.163e-9
-0.440, -3.167e-9
-0.442, -3.171e-9
-0.444, -3.175e-9
-0.446, -3.179e-9
-0.448, -3.182e-9
-0.450, -3.188e-9
-0.452, -3.192e-9
-0.454, -3.198e-9
-0.456, -3.203e-9
-0.458, -3.206e-9
-0.460, -3.214e-9
-0.462, -3.218e-9
-0.464, -3.223e-9
-0.466, -3.226e-9
-0.468, -3.232e-9
-0.470, -3.237e-9
-0.472, -3.241e-9
-0.474, -3.245e-9
-0.476, -3.249e-9
-0.478, -3.252e-9
-0.480, -3.258e-9
-0.482, -3.260e-9
-0.484, -3.266e-9
-0.486, -3.270e-9
-0.488, -3.273e-9
-0.490, -3.277e-9
-0.492, -3.284e-9
-0.494, -3.291e-9
-0.496, -3.298e-9
-0.498, -3.302e-9
-0.499, -3.305e-9