File: Fig 4/Fig 3c CV surface dark/CV_surface_dark_5.txt
Nov. 20, 2024   15:52:17
Cyclic Voltammetry
File: +12 2319-1 fto cv_cells_dark_surface_5.bin
Data Source:  Experiment
Instrument Model:  CHI920C
Ref. Electrode:
Header:
Note:

Init E (V) = -0.5
High E (V) = 0.5
Low E (V) = -0.5
Init P/N = P
Scan Rate (V/s) = 0.05
Segment = 2
Sample Interval (V) = 0.001
Quiet Time (sec) = 10
Sensitivity (A/V) = 1e-7

Results:

Channel 1:
Segment 1:
Ep = 0.125V
ip = 1.908e-9A
Ah = 5.166e-10C

Segment 2:

Potential/V, Current/A

-0.500, -1.450e-9
-0.498, -1.329e-9
-0.496, -1.263e-9
-0.494, -1.208e-9
-0.492, -1.167e-9
-0.490, -1.131e-9
-0.488, -1.100e-9
-0.486, -1.074e-9
-0.484, -1.047e-9
-0.482, -1.021e-9
-0.480, -9.952e-10
-0.478, -9.708e-10
-0.476, -9.484e-10
-0.474, -9.267e-10
-0.472, -9.081e-10
-0.470, -8.879e-10
-0.468, -8.702e-10
-0.466, -8.520e-10
-0.464, -8.353e-10
-0.462, -8.213e-10
-0.460, -8.057e-10
-0.458, -7.911e-10
-0.456, -7.720e-10
-0.454, -7.547e-10
-0.452, -7.385e-10
-0.450, -7.224e-10
-0.448, -7.089e-10
-0.446, -6.947e-10
-0.444, -6.801e-10
-0.442, -6.656e-10
-0.440, -6.507e-10
-0.438, -6.361e-10
-0.436, -6.228e-10
-0.434, -6.086e-10
-0.432, -5.962e-10
-0.430, -5.842e-10
-0.428, -5.701e-10
-0.426, -5.564e-10
-0.424, -5.449e-10
-0.422, -5.291e-10
-0.420, -5.138e-10
-0.418, -4.990e-10
-0.416, -4.844e-10
-0.414, -4.694e-10
-0.412, -4.581e-10
-0.410, -4.454e-10
-0.408, -4.321e-10
-0.406, -4.205e-10
-0.404, -4.076e-10
-0.402, -3.955e-10
-0.400, -3.828e-10
-0.398, -3.704e-10
-0.396, -3.589e-10
-0.394, -3.475e-10
-0.392, -3.370e-10
-0.390, -3.252e-10
-0.388, -3.155e-10
-0.386, -3.023e-10
-0.384, -2.891e-10
-0.382, -2.764e-10
-0.380, -2.617e-10
-0.378, -2.485e-10
-0.376, -2.353e-10
-0.374, -2.237e-10
-0.372, -2.107e-10
-0.370, -2.012e-10
-0.368, -1.897e-10
-0.366, -1.776e-10
-0.364, -1.658e-10
-0.362, -1.544e-10
-0.360, -1.427e-10
-0.358, -1.310e-10
-0.356, -1.189e-10
-0.354, -1.081e-10
-0.352, -9.783e-11
-0.350, -8.633e-11
-0.348, -7.512e-11
-0.346, -6.508e-11
-0.344, -5.280e-11
-0.342, -4.003e-11
-0.340, -2.618e-11
-0.338, -1.380e-11
-0.336, -2.203e-12
-0.334, 9.300e-12
-0.332, 1.973e-11
-0.330, 3.123e-11
-0.328, 4.332e-11
-0.326, 5.375e-11
-0.324, 6.535e-11
-0.322, 7.734e-11
-0.320, 8.816e-11
-0.318, 9.869e-11
-0.316, 1.103e-10
-0.314, 1.215e-10
-0.312, 1.317e-10
-0.310, 1.419e-10
-0.308, 1.524e-10
-0.306, 1.659e-10
-0.304, 1.742e-10
-0.302, 1.858e-10
-0.300, 1.964e-10
-0.298, 2.113e-10
-0.296, 2.230e-10
-0.294, 2.354e-10
-0.292, 2.475e-10
-0.290, 2.591e-10
-0.288, 2.708e-10
-0.286, 2.806e-10
-0.284, 2.914e-10
-0.282, 3.022e-10
-0.280, 3.156e-10
-0.278, 3.268e-10
-0.276, 3.380e-10
-0.274, 3.505e-10
-0.272, 3.616e-10
-0.270, 3.717e-10
-0.268, 3.815e-10
-0.266, 3.928e-10
-0.264, 4.055e-10
-0.262, 4.151e-10
-0.260, 4.279e-10
-0.258, 4.417e-10
-0.256, 4.547e-10
-0.254, 4.684e-10
-0.252, 4.801e-10
-0.250, 4.936e-10
-0.248, 5.067e-10
-0.246, 5.194e-10
-0.244, 5.317e-10
-0.242, 5.415e-10
-0.240, 5.540e-10
-0.238, 5.667e-10
-0.236, 5.781e-10
-0.234, 5.903e-10
-0.232, 6.023e-10
-0.230, 6.129e-10
-0.228, 6.245e-10
-0.226, 6.349e-10
-0.224, 6.477e-10
-0.222, 6.592e-10
-0.220, 6.698e-10
-0.218, 6.820e-10
-0.216, 6.937e-10
-0.214, 7.062e-10
-0.212, 7.191e-10
-0.210, 7.305e-10
-0.208, 7.424e-10
-0.206, 7.544e-10
-0.204, 7.619e-10
-0.202, 7.762e-10
-0.200, 7.867e-10
-0.198, 8.001e-10
-0.196, 8.131e-10
-0.194, 8.251e-10
-0.192, 8.367e-10
-0.190, 8.479e-10
-0.188, 8.611e-10
-0.186, 8.739e-10
-0.184, 8.851e-10
-0.182, 8.954e-10
-0.180, 9.069e-10
-0.178, 9.201e-10
-0.176, 9.339e-10
-0.174, 9.440e-10
-0.172, 9.584e-10
-0.170, 9.689e-10
-0.168, 9.805e-10
-0.166, 9.919e-10
-0.164, 1.004e-9
-0.162, 1.015e-9
-0.160, 1.027e-9
-0.158, 1.038e-9
-0.156, 1.050e-9
-0.154, 1.063e-9
-0.152, 1.074e-9
-0.150, 1.085e-9
-0.148, 1.097e-9
-0.146, 1.107e-9
-0.144, 1.116e-9
-0.142, 1.128e-9
-0.140, 1.138e-9
-0.138, 1.151e-9
-0.136, 1.163e-9
-0.134, 1.174e-9
-0.132, 1.188e-9
-0.130, 1.201e-9
-0.128, 1.213e-9
-0.126, 1.223e-9
-0.124, 1.234e-9
-0.122, 1.246e-9
-0.120, 1.257e-9
-0.118, 1.268e-9
-0.116, 1.281e-9
-0.114, 1.292e-9
-0.112, 1.303e-9
-0.110, 1.315e-9
-0.108, 1.329e-9
-0.106, 1.340e-9
-0.104, 1.352e-9
-0.102, 1.369e-9
-0.100, 1.377e-9
-0.098, 1.386e-9
-0.096, 1.401e-9
-0.094, 1.413e-9
-0.092, 1.424e-9
-0.090, 1.436e-9
-0.088, 1.449e-9
-0.086, 1.460e-9
-0.084, 1.472e-9
-0.082, 1.483e-9
-0.080, 1.493e-9
-0.078, 1.506e-9
-0.076, 1.515e-9
-0.074, 1.525e-9
-0.072, 1.536e-9
-0.070, 1.550e-9
-0.068, 1.561e-9
-0.066, 1.571e-9
-0.064, 1.582e-9
-0.062, 1.593e-9
-0.060, 1.603e-9
-0.058, 1.614e-9
-0.056, 1.625e-9
-0.054, 1.634e-9
-0.052, 1.648e-9
-0.050, 1.660e-9
-0.048, 1.671e-9
-0.046, 1.683e-9
-0.044, 1.696e-9
-0.042, 1.708e-9
-0.040, 1.720e-9
-0.038, 1.732e-9
-0.036, 1.742e-9
-0.034, 1.754e-9
-0.032, 1.766e-9
-0.030, 1.778e-9
-0.028, 1.788e-9
-0.026, 1.799e-9
-0.024, 1.811e-9
-0.022, 1.822e-9
-0.020, 1.835e-9
-0.018, 1.848e-9
-0.016, 1.859e-9
-0.014, 1.870e-9
-0.012, 1.881e-9
-0.010, 1.893e-9
-0.008, 1.907e-9
-0.006, 1.920e-9
-0.004, 1.933e-9
-0.002, 1.944e-9
0.000, 1.952e-9
0.002, 1.965e-9
0.004, 1.977e-9
0.006, 1.989e-9
0.008, 2.001e-9
0.010, 2.012e-9
0.012, 2.027e-9
0.014, 2.035e-9
0.016, 2.048e-9
0.018, 2.061e-9
0.020, 2.073e-9
0.022, 2.084e-9
0.024, 2.097e-9
0.026, 2.107e-9
0.028, 2.119e-9
0.030, 2.130e-9
0.032, 2.142e-9
0.034, 2.157e-9
0.036, 2.171e-9
0.038, 2.184e-9
0.040, 2.196e-9
0.042, 2.209e-9
0.044, 2.221e-9
0.046, 2.234e-9
0.048, 2.245e-9
0.050, 2.256e-9
0.052, 2.268e-9
0.054, 2.283e-9
0.056, 2.297e-9
0.058, 2.307e-9
0.060, 2.322e-9
0.062, 2.335e-9
0.064, 2.350e-9
0.066, 2.362e-9
0.068, 2.374e-9
0.070, 2.391e-9
0.072, 2.404e-9
0.074, 2.417e-9
0.076, 2.430e-9
0.078, 2.445e-9
0.080, 2.459e-9
0.082, 2.472e-9
0.084, 2.488e-9
0.086, 2.502e-9
0.088, 2.517e-9
0.090, 2.532e-9
0.092, 2.546e-9
0.094, 2.562e-9
0.096, 2.577e-9
0.098, 2.594e-9
0.100, 2.611e-9
0.102, 2.635e-9
0.104, 2.674e-9
0.106, 2.718e-9
0.108, 2.781e-9
0.110, 2.880e-9
0.112, 3.020e-9
0.114, 3.213e-9
0.116, 3.472e-9
0.118, 3.797e-9
0.120, 4.102e-9
0.122, 4.325e-9
0.124, 4.490e-9
0.126, 4.527e-9
0.128, 4.398e-9
0.130, 4.277e-9
0.132, 4.107e-9
0.134, 3.950e-9
0.136, 3.784e-9
0.138, 3.597e-9
0.140, 3.437e-9
0.142, 3.288e-9
0.144, 3.169e-9
0.146, 3.082e-9
0.148, 3.022e-9
0.150, 2.982e-9
0.152, 2.957e-9
0.154, 2.942e-9
0.156, 2.930e-9
0.158, 2.925e-9
0.160, 2.924e-9
0.162, 2.925e-9
0.164, 2.927e-9
0.166, 2.929e-9
0.168, 2.930e-9
0.170, 2.935e-9
0.172, 2.940e-9
0.174, 2.945e-9
0.176, 2.951e-9
0.178, 2.957e-9
0.180, 2.961e-9
0.182, 2.968e-9
0.184, 2.975e-9
0.186, 2.982e-9
0.188, 2.987e-9
0.190, 2.991e-9
0.192, 2.994e-9
0.194, 3.001e-9
0.196, 3.008e-9
0.198, 3.014e-9
0.200, 3.020e-9
0.202, 3.025e-9
0.204, 3.032e-9
0.206, 3.033e-9
0.208, 3.040e-9
0.210, 3.045e-9
0.212, 3.053e-9
0.214, 3.058e-9
0.216, 3.063e-9
0.218, 3.068e-9
0.220, 3.073e-9
0.222, 3.077e-9
0.224, 3.083e-9
0.226, 3.088e-9
0.228, 3.093e-9
0.230, 3.100e-9
0.232, 3.102e-9
0.234, 3.108e-9
0.236, 3.114e-9
0.238, 3.120e-9
0.240, 3.128e-9
0.242, 3.132e-9
0.244, 3.136e-9
0.246, 3.144e-9
0.248, 3.149e-9
0.250, 3.156e-9
0.252, 3.161e-9
0.254, 3.168e-9
0.256, 3.173e-9
0.258, 3.179e-9
0.260, 3.184e-9
0.262, 3.190e-9
0.264, 3.198e-9
0.266, 3.203e-9
0.268, 3.208e-9
0.270, 3.214e-9
0.272, 3.220e-9
0.274, 3.227e-9
0.276, 3.234e-9
0.278, 3.241e-9
0.280, 3.247e-9
0.282, 3.252e-9
0.284, 3.260e-9
0.286, 3.265e-9
0.288, 3.272e-9
0.290, 3.278e-9
0.292, 3.283e-9
0.294, 3.290e-9
0.296, 3.296e-9
0.298, 3.302e-9
0.300, 3.309e-9
0.302, 3.317e-9
0.304, 3.324e-9
0.306, 3.329e-9
0.308, 3.342e-9
0.310, 3.344e-9
0.312, 3.352e-9
0.314, 3.359e-9
0.316, 3.368e-9
0.318, 3.376e-9
0.320, 3.382e-9
0.322, 3.392e-9
0.324, 3.399e-9
0.326, 3.408e-9
0.328, 3.416e-9
0.330, 3.424e-9
0.332, 3.434e-9
0.334, 3.441e-9
0.336, 3.448e-9
0.338, 3.459e-9
0.340, 3.466e-9
0.342, 3.475e-9
0.344, 3.483e-9
0.346, 3.491e-9
0.348, 3.501e-9
0.350, 3.510e-9
0.352, 3.520e-9
0.354, 3.530e-9
0.356, 3.538e-9
0.358, 3.545e-9
0.360, 3.555e-9
0.362, 3.560e-9
0.364, 3.570e-9
0.366, 3.578e-9
0.368, 3.588e-9
0.370, 3.597e-9
0.372, 3.608e-9
0.374, 3.618e-9
0.376, 3.630e-9
0.378, 3.637e-9
0.380, 3.651e-9
0.382, 3.662e-9
0.384, 3.673e-9
0.386, 3.683e-9
0.388, 3.693e-9
0.390, 3.703e-9
0.392, 3.716e-9
0.394, 3.726e-9
0.396, 3.738e-9
0.398, 3.748e-9
0.400, 3.758e-9
0.402, 3.769e-9
0.404, 3.779e-9
0.406, 3.789e-9
0.408, 3.799e-9
0.410, 3.803e-9
0.412, 3.816e-9
0.414, 3.829e-9
0.416, 3.840e-9
0.418, 3.850e-9
0.420, 3.862e-9
0.422, 3.877e-9
0.424, 3.887e-9
0.426, 3.899e-9
0.428, 3.913e-9
0.430, 3.925e-9
0.432, 3.934e-9
0.434, 3.947e-9
0.436, 3.959e-9
0.438, 3.973e-9
0.440, 3.985e-9
0.442, 3.998e-9
0.444, 4.010e-9
0.446, 4.022e-9
0.448, 4.035e-9
0.450, 4.045e-9
0.452, 4.061e-9
0.454, 4.071e-9
0.456, 4.081e-9
0.458, 4.095e-9
0.460, 4.109e-9
0.462, 4.123e-9
0.464, 4.136e-9
0.466, 4.150e-9
0.468, 4.165e-9
0.470, 4.180e-9
0.472, 4.196e-9
0.474, 4.207e-9
0.476, 4.221e-9
0.478, 4.236e-9
0.480, 4.250e-9
0.482, 4.263e-9
0.484, 4.275e-9
0.486, 4.289e-9
0.488, 4.304e-9
0.490, 4.315e-9
0.492, 4.330e-9
0.494, 4.347e-9
0.496, 4.361e-9
0.498, 4.376e-9
0.500, 4.358e-9
0.498, 4.089e-9
0.496, 3.937e-9
0.494, 3.816e-9
0.492, 3.714e-9
0.490, 3.613e-9
0.488, 3.530e-9
0.486, 3.452e-9
0.484, 3.374e-9
0.482, 3.306e-9
0.480, 3.242e-9
0.478, 3.175e-9
0.476, 3.108e-9
0.474, 3.054e-9
0.472, 3.000e-9
0.470, 2.947e-9
0.468, 2.896e-9
0.466, 2.846e-9
0.464, 2.802e-9
0.462, 2.756e-9
0.460, 2.711e-9
0.458, 2.663e-9
0.456, 2.618e-9
0.454, 2.580e-9
0.452, 2.541e-9
0.450, 2.503e-9
0.448, 2.466e-9
0.446, 2.429e-9
0.444, 2.390e-9
0.442, 2.354e-9
0.440, 2.319e-9
0.438, 2.283e-9
0.436, 2.251e-9
0.434, 2.218e-9
0.432, 2.186e-9
0.430, 2.151e-9
0.428, 2.119e-9
0.426, 2.092e-9
0.424, 2.064e-9
0.422, 2.037e-9
0.420, 2.007e-9
0.418, 1.979e-9
0.416, 1.951e-9
0.414, 1.922e-9
0.412, 1.893e-9
0.410, 1.867e-9
0.408, 1.842e-9
0.406, 1.813e-9
0.404, 1.786e-9
0.402, 1.760e-9
0.400, 1.736e-9
0.398, 1.711e-9
0.396, 1.686e-9
0.394, 1.658e-9
0.392, 1.633e-9
0.390, 1.611e-9
0.388, 1.588e-9
0.386, 1.565e-9
0.384, 1.542e-9
0.382, 1.519e-9
0.380, 1.496e-9
0.378, 1.473e-9
0.376, 1.451e-9
0.374, 1.427e-9
0.372, 1.404e-9
0.370, 1.383e-9
0.368, 1.359e-9
0.366, 1.337e-9
0.364, 1.316e-9
0.362, 1.294e-9
0.360, 1.273e-9
0.358, 1.254e-9
0.356, 1.233e-9
0.354, 1.213e-9
0.352, 1.191e-9
0.350, 1.168e-9
0.348, 1.148e-9
0.346, 1.129e-9
0.344, 1.111e-9
0.342, 1.094e-9
0.340, 1.074e-9
0.338, 1.054e-9
0.336, 1.036e-9
0.334, 1.018e-9
0.332, 9.985e-10
0.330, 9.804e-10
0.328, 9.624e-10
0.326, 9.422e-10
0.324, 9.228e-10
0.322, 9.036e-10
0.320, 8.858e-10
0.318, 8.665e-10
0.316, 8.493e-10
0.314, 8.304e-10
0.312, 8.117e-10
0.310, 7.934e-10
0.308, 7.765e-10
0.306, 7.558e-10
0.304, 7.406e-10
0.302, 7.240e-10
0.300, 7.060e-10
0.298, 6.888e-10
0.296, 6.691e-10
0.294, 6.527e-10
0.292, 6.369e-10
0.290, 6.209e-10
0.288, 6.045e-10
0.286, 5.883e-10
0.284, 5.709e-10
0.282, 5.537e-10
0.280, 5.380e-10
0.278, 5.214e-10
0.276, 5.028e-10
0.274, 4.848e-10
0.272, 4.662e-10
0.270, 4.484e-10
0.268, 4.303e-10
0.266, 4.132e-10
0.264, 3.987e-10
0.262, 3.834e-10
0.260, 3.690e-10
0.258, 3.539e-10
0.256, 3.387e-10
0.254, 3.217e-10
0.252, 3.075e-10
0.250, 2.924e-10
0.248, 2.761e-10
0.246, 2.616e-10
0.244, 2.442e-10
0.242, 2.270e-10
0.240, 2.102e-10
0.238, 1.931e-10
0.236, 1.771e-10
0.234, 1.638e-10
0.232, 1.498e-10
0.230, 1.373e-10
0.228, 1.218e-10
0.226, 1.067e-10
0.224, 9.148e-11
0.222, 7.510e-11
0.220, 6.126e-11
0.218, 4.625e-11
0.216, 3.114e-11
0.214, 1.700e-11
0.212, 4.289e-13
0.210, -1.946e-11
0.208, -3.437e-11
0.206, -5.172e-11
0.204, -6.488e-11
0.202, -8.175e-11
0.200, -9.608e-11
0.198, -1.113e-10
0.196, -1.276e-10
0.194, -1.411e-10
0.192, -1.568e-10
0.190, -1.729e-10
0.188, -1.887e-10
0.186, -2.033e-10
0.184, -2.200e-10
0.182, -2.360e-10
0.180, -2.545e-10
0.178, -2.734e-10
0.176, -2.906e-10
0.174, -3.078e-10
0.172, -3.237e-10
0.170, -3.371e-10
0.168, -3.523e-10
0.166, -3.658e-10
0.164, -3.836e-10
0.162, -4.007e-10
0.160, -4.167e-10
0.158, -4.338e-10
0.156, -4.508e-10
0.154, -4.684e-10
0.152, -4.845e-10
0.150, -5.034e-10
0.148, -5.240e-10
0.146, -5.443e-10
0.144, -5.611e-10
0.142, -5.790e-10
0.140, -5.954e-10
0.138, -6.126e-10
0.136, -6.312e-10
0.134, -6.489e-10
0.132, -6.676e-10
0.130, -6.851e-10
0.128, -7.032e-10
0.126, -7.224e-10
0.124, -7.401e-10
0.122, -7.629e-10
0.120, -7.823e-10
0.118, -8.013e-10
0.116, -8.187e-10
0.114, -8.364e-10
0.112, -8.531e-10
0.110, -8.725e-10
0.108, -8.920e-10
0.106, -9.110e-10
0.104, -9.314e-10
0.102, -9.568e-10
0.100, -9.745e-10
0.098, -9.959e-10
0.096, -1.019e-9
0.094, -1.040e-9
0.092, -1.058e-9
0.090, -1.078e-9
0.088, -1.097e-9
0.086, -1.116e-9
0.084, -1.138e-9
0.082, -1.159e-9
0.080, -1.180e-9
0.078, -1.200e-9
0.076, -1.221e-9
0.074, -1.244e-9
0.072, -1.267e-9
0.070, -1.287e-9
0.068, -1.307e-9
0.066, -1.326e-9
0.064, -1.343e-9
0.062, -1.363e-9
0.060, -1.385e-9
0.058, -1.407e-9
0.056, -1.427e-9
0.054, -1.447e-9
0.052, -1.466e-9
0.050, -1.488e-9
0.048, -1.510e-9
0.046, -1.531e-9
0.044, -1.553e-9
0.042, -1.572e-9
0.040, -1.588e-9
0.038, -1.607e-9
0.036, -1.626e-9
0.034, -1.645e-9
0.032, -1.661e-9
0.030, -1.681e-9
0.028, -1.699e-9
0.026, -1.718e-9
0.024, -1.738e-9
0.022, -1.756e-9
0.020, -1.774e-9
0.018, -1.790e-9
0.016, -1.808e-9
0.014, -1.823e-9
0.012, -1.840e-9
0.010, -1.859e-9
0.008, -1.876e-9
0.006, -1.894e-9
0.004, -1.909e-9
0.002, -1.925e-9
-0.000, -1.936e-9
-0.002, -1.951e-9
-0.004, -1.969e-9
-0.006, -1.985e-9
-0.008, -2.002e-9
-0.010, -2.017e-9
-0.012, -2.032e-9
-0.014, -2.046e-9
-0.016, -2.059e-9
-0.018, -2.075e-9
-0.020, -2.094e-9
-0.022, -2.111e-9
-0.024, -2.127e-9
-0.026, -2.144e-9
-0.028, -2.166e-9
-0.030, -2.194e-9
-0.032, -2.224e-9
-0.034, -2.255e-9
-0.036, -2.280e-9
-0.038, -2.309e-9
-0.040, -2.347e-9
-0.042, -2.377e-9
-0.044, -2.408e-9
-0.046, -2.443e-9
-0.048, -2.471e-9
-0.050, -2.515e-9
-0.052, -2.543e-9
-0.054, -2.567e-9
-0.056, -2.600e-9
-0.058, -2.627e-9
-0.060, -2.644e-9
-0.062, -2.630e-9
-0.064, -2.605e-9
-0.066, -2.598e-9
-0.068, -2.579e-9
-0.070, -2.575e-9
-0.072, -2.553e-9
-0.074, -2.528e-9
-0.076, -2.495e-9
-0.078, -2.472e-9
-0.080, -2.472e-9
-0.082, -2.461e-9
-0.084, -2.442e-9
-0.086, -2.449e-9
-0.088, -2.465e-9
-0.090, -2.453e-9
-0.092, -2.446e-9
-0.094, -2.448e-9
-0.096, -2.442e-9
-0.098, -2.458e-9
-0.100, -2.446e-9
-0.102, -2.456e-9
-0.104, -2.468e-9
-0.106, -2.468e-9
-0.108, -2.479e-9
-0.110, -2.480e-9
-0.112, -2.479e-9
-0.114, -2.493e-9
-0.116, -2.489e-9
-0.118, -2.493e-9
-0.120, -2.511e-9
-0.122, -2.510e-9
-0.124, -2.511e-9
-0.126, -2.515e-9
-0.128, -2.519e-9
-0.130, -2.526e-9
-0.132, -2.528e-9
-0.134, -2.536e-9
-0.136, -2.544e-9
-0.138, -2.542e-9
-0.140, -2.554e-9
-0.142, -2.557e-9
-0.144, -2.562e-9
-0.146, -2.572e-9
-0.148, -2.580e-9
-0.150, -2.586e-9
-0.152, -2.585e-9
-0.154, -2.589e-9
-0.156, -2.597e-9
-0.158, -2.613e-9
-0.160, -2.616e-9
-0.162, -2.615e-9
-0.164, -2.625e-9
-0.166, -2.625e-9
-0.168, -2.628e-9
-0.170, -2.635e-9
-0.172, -2.642e-9
-0.174, -2.646e-9
-0.176, -2.651e-9
-0.178, -2.656e-9
-0.180, -2.662e-9
-0.182, -2.670e-9
-0.184, -2.682e-9
-0.186, -2.684e-9
-0.188, -2.692e-9
-0.190, -2.691e-9
-0.192, -2.695e-9
-0.194, -2.702e-9
-0.196, -2.712e-9
-0.198, -2.718e-9
-0.200, -2.722e-9
-0.202, -2.728e-9
-0.204, -2.734e-9
-0.206, -2.736e-9
-0.208, -2.743e-9
-0.210, -2.749e-9
-0.212, -2.756e-9
-0.214, -2.761e-9
-0.216, -2.765e-9
-0.218, -2.772e-9
-0.220, -2.777e-9
-0.222, -2.783e-9
-0.224, -2.788e-9
-0.226, -2.794e-9
-0.228, -2.799e-9
-0.230, -2.807e-9
-0.232, -2.813e-9
-0.234, -2.817e-9
-0.236, -2.823e-9
-0.238, -2.829e-9
-0.240, -2.836e-9
-0.242, -2.844e-9
-0.244, -2.848e-9
-0.246, -2.854e-9
-0.248, -2.858e-9
-0.250, -2.865e-9
-0.252, -2.872e-9
-0.254, -2.879e-9
-0.256, -2.882e-9
-0.258, -2.887e-9
-0.260, -2.893e-9
-0.262, -2.899e-9
-0.264, -2.903e-9
-0.266, -2.909e-9
-0.268, -2.915e-9
-0.270, -2.917e-9
-0.272, -2.922e-9
-0.274, -2.925e-9
-0.276, -2.933e-9
-0.278, -2.937e-9
-0.280, -2.944e-9
-0.282, -2.948e-9
-0.284, -2.954e-9
-0.286, -2.959e-9
-0.288, -2.961e-9
-0.290, -2.968e-9
-0.292, -2.973e-9
-0.294, -2.979e-9
-0.296, -2.981e-9
-0.298, -2.987e-9
-0.300, -2.992e-9
-0.302, -2.996e-9
-0.304, -3.000e-9
-0.306, -3.004e-9
-0.308, -3.014e-9
-0.310, -3.014e-9
-0.312, -3.018e-9
-0.314, -3.020e-9
-0.316, -3.025e-9
-0.318, -3.028e-9
-0.320, -3.031e-9
-0.322, -3.036e-9
-0.324, -3.039e-9
-0.326, -3.043e-9
-0.328, -3.048e-9
-0.330, -3.049e-9
-0.332, -3.052e-9
-0.334, -3.056e-9
-0.336, -3.061e-9
-0.338, -3.063e-9
-0.340, -3.069e-9
-0.342, -3.074e-9
-0.344, -3.076e-9
-0.346, -3.079e-9
-0.348, -3.081e-9
-0.350, -3.085e-9
-0.352, -3.088e-9
-0.354, -3.091e-9
-0.356, -3.095e-9
-0.358, -3.099e-9
-0.360, -3.102e-9
-0.362, -3.105e-9
-0.364, -3.108e-9
-0.366, -3.112e-9
-0.368, -3.114e-9
-0.370, -3.117e-9
-0.372, -3.119e-9
-0.374, -3.124e-9
-0.376, -3.128e-9
-0.378, -3.130e-9
-0.380, -3.134e-9
-0.382, -3.135e-9
-0.384, -3.139e-9
-0.386, -3.143e-9
-0.388, -3.147e-9
-0.390, -3.150e-9
-0.392, -3.152e-9
-0.394, -3.154e-9
-0.396, -3.158e-9
-0.398, -3.164e-9
-0.400, -3.166e-9
-0.402, -3.169e-9
-0.404, -3.173e-9
-0.406, -3.177e-9
-0.408, -3.181e-9
-0.410, -3.184e-9
-0.412, -3.187e-9
-0.414, -3.190e-9
-0.416, -3.193e-9
-0.418, -3.197e-9
-0.420, -3.202e-9
-0.422, -3.205e-9
-0.424, -3.209e-9
-0.426, -3.215e-9
-0.428, -3.218e-9
-0.430, -3.222e-9
-0.432, -3.224e-9
-0.434, -3.229e-9
-0.436, -3.233e-9
-0.438, -3.236e-9
-0.440, -3.240e-9
-0.442, -3.244e-9
-0.444, -3.249e-9
-0.446, -3.253e-9
-0.448, -3.254e-9
-0.450, -3.259e-9
-0.452, -3.262e-9
-0.454, -3.269e-9
-0.456, -3.272e-9
-0.458, -3.275e-9
-0.460, -3.280e-9
-0.462, -3.284e-9
-0.464, -3.289e-9
-0.466, -3.293e-9
-0.468, -3.298e-9
-0.470, -3.303e-9
-0.472, -3.307e-9
-0.474, -3.312e-9
-0.476, -3.317e-9
-0.478, -3.323e-9
-0.480, -3.331e-9
-0.482, -3.334e-9
-0.484, -3.339e-9
-0.486, -3.343e-9
-0.488, -3.349e-9
-0.490, -3.354e-9
-0.492, -3.359e-9
-0.494, -3.363e-9
-0.496, -3.368e-9
-0.498, -3.374e-9
-0.499, -3.376e-9