File: Fig 4/Fig 3c CV surface dark/CV_surface_dark_6.txt
Nov. 20, 2024   15:53:22
Cyclic Voltammetry
File: +12 2319-1 fto cv_cells_dark_surface_6.bin
Data Source:  Experiment
Instrument Model:  CHI920C
Ref. Electrode:
Header:
Note:

Init E (V) = -0.5
High E (V) = 0.5
Low E (V) = -0.5
Init P/N = P
Scan Rate (V/s) = 0.05
Segment = 2
Sample Interval (V) = 0.001
Quiet Time (sec) = 10
Sensitivity (A/V) = 1e-7

Results:

Channel 1:
Segment 1:
Ep = 0.123V
ip = 2.121e-9A
Ah = 5.303e-10C

Segment 2:

Potential/V, Current/A

-0.500, -1.373e-9
-0.498, -1.254e-9
-0.496, -1.182e-9
-0.494, -1.131e-9
-0.492, -1.089e-9
-0.490, -1.055e-9
-0.488, -1.023e-9
-0.486, -9.918e-10
-0.484, -9.635e-10
-0.482, -9.375e-10
-0.480, -9.139e-10
-0.478, -8.919e-10
-0.476, -8.702e-10
-0.474, -8.506e-10
-0.472, -8.324e-10
-0.470, -8.157e-10
-0.468, -7.980e-10
-0.466, -7.803e-10
-0.464, -7.603e-10
-0.462, -7.419e-10
-0.460, -7.259e-10
-0.458, -7.092e-10
-0.456, -6.934e-10
-0.454, -6.775e-10
-0.452, -6.609e-10
-0.450, -6.467e-10
-0.448, -6.327e-10
-0.446, -6.181e-10
-0.444, -6.033e-10
-0.442, -5.909e-10
-0.440, -5.762e-10
-0.438, -5.638e-10
-0.436, -5.477e-10
-0.434, -5.344e-10
-0.432, -5.192e-10
-0.430, -5.029e-10
-0.428, -4.886e-10
-0.426, -4.751e-10
-0.424, -4.612e-10
-0.422, -4.478e-10
-0.420, -4.337e-10
-0.418, -4.223e-10
-0.416, -4.083e-10
-0.414, -3.946e-10
-0.412, -3.827e-10
-0.410, -3.703e-10
-0.408, -3.578e-10
-0.406, -3.476e-10
-0.404, -3.353e-10
-0.402, -3.233e-10
-0.400, -3.132e-10
-0.398, -3.002e-10
-0.396, -2.888e-10
-0.394, -2.744e-10
-0.392, -2.598e-10
-0.390, -2.464e-10
-0.388, -2.321e-10
-0.386, -2.195e-10
-0.384, -2.088e-10
-0.382, -1.960e-10
-0.380, -1.853e-10
-0.378, -1.736e-10
-0.376, -1.628e-10
-0.374, -1.520e-10
-0.372, -1.394e-10
-0.370, -1.286e-10
-0.368, -1.161e-10
-0.366, -1.060e-10
-0.364, -9.471e-11
-0.362, -8.292e-11
-0.360, -7.317e-11
-0.358, -6.264e-11
-0.356, -4.968e-11
-0.354, -3.544e-11
-0.352, -2.375e-11
-0.350, -9.709e-12
-0.348, 1.306e-12
-0.346, 1.320e-11
-0.344, 2.587e-11
-0.342, 3.572e-11
-0.340, 4.673e-11
-0.338, 5.824e-11
-0.336, 6.984e-11
-0.334, 8.036e-11
-0.332, 9.177e-11
-0.330, 1.051e-10
-0.328, 1.153e-10
-0.326, 1.250e-10
-0.324, 1.361e-10
-0.322, 1.471e-10
-0.320, 1.568e-10
-0.318, 1.663e-10
-0.316, 1.765e-10
-0.314, 1.885e-10
-0.312, 2.004e-10
-0.310, 2.122e-10
-0.308, 2.231e-10
-0.306, 2.419e-10
-0.304, 2.505e-10
-0.302, 2.634e-10
-0.300, 2.727e-10
-0.298, 2.842e-10
-0.296, 2.947e-10
-0.294, 3.046e-10
-0.292, 3.162e-10
-0.290, 3.279e-10
-0.288, 3.402e-10
-0.286, 3.508e-10
-0.284, 3.619e-10
-0.282, 3.728e-10
-0.280, 3.844e-10
-0.278, 3.944e-10
-0.276, 4.041e-10
-0.274, 4.150e-10
-0.272, 4.259e-10
-0.270, 4.389e-10
-0.268, 4.506e-10
-0.266, 4.662e-10
-0.264, 4.796e-10
-0.262, 4.939e-10
-0.260, 5.061e-10
-0.258, 5.173e-10
-0.256, 5.270e-10
-0.254, 5.397e-10
-0.252, 5.512e-10
-0.250, 5.644e-10
-0.248, 5.767e-10
-0.246, 5.888e-10
-0.244, 5.989e-10
-0.242, 6.102e-10
-0.240, 6.214e-10
-0.238, 6.338e-10
-0.236, 6.435e-10
-0.234, 6.555e-10
-0.232, 6.658e-10
-0.230, 6.766e-10
-0.228, 6.899e-10
-0.226, 7.019e-10
-0.224, 7.153e-10
-0.222, 7.272e-10
-0.220, 7.382e-10
-0.218, 7.499e-10
-0.216, 7.626e-10
-0.214, 7.741e-10
-0.212, 7.847e-10
-0.210, 7.948e-10
-0.208, 8.070e-10
-0.206, 8.191e-10
-0.204, 8.273e-10
-0.202, 8.425e-10
-0.200, 8.561e-10
-0.198, 8.673e-10
-0.196, 8.791e-10
-0.194, 8.909e-10
-0.192, 9.027e-10
-0.190, 9.142e-10
-0.188, 9.266e-10
-0.186, 9.404e-10
-0.184, 9.519e-10
-0.182, 9.637e-10
-0.180, 9.771e-10
-0.178, 9.880e-10
-0.176, 9.985e-10
-0.174, 1.012e-9
-0.172, 1.021e-9
-0.170, 1.034e-9
-0.168, 1.046e-9
-0.166, 1.057e-9
-0.164, 1.068e-9
-0.162, 1.080e-9
-0.160, 1.092e-9
-0.158, 1.103e-9
-0.156, 1.114e-9
-0.154, 1.123e-9
-0.152, 1.134e-9
-0.150, 1.148e-9
-0.148, 1.157e-9
-0.146, 1.171e-9
-0.144, 1.183e-9
-0.142, 1.196e-9
-0.140, 1.207e-9
-0.138, 1.220e-9
-0.136, 1.231e-9
-0.134, 1.243e-9
-0.132, 1.255e-9
-0.130, 1.267e-9
-0.128, 1.277e-9
-0.126, 1.290e-9
-0.124, 1.300e-9
-0.122, 1.312e-9
-0.120, 1.325e-9
-0.118, 1.336e-9
-0.116, 1.348e-9
-0.114, 1.359e-9
-0.112, 1.371e-9
-0.110, 1.384e-9
-0.108, 1.397e-9
-0.106, 1.406e-9
-0.104, 1.419e-9
-0.102, 1.438e-9
-0.100, 1.448e-9
-0.098, 1.459e-9
-0.096, 1.469e-9
-0.094, 1.482e-9
-0.092, 1.491e-9
-0.090, 1.503e-9
-0.088, 1.514e-9
-0.086, 1.524e-9
-0.084, 1.536e-9
-0.082, 1.550e-9
-0.080, 1.561e-9
-0.078, 1.571e-9
-0.076, 1.582e-9
-0.074, 1.595e-9
-0.072, 1.605e-9
-0.070, 1.616e-9
-0.068, 1.627e-9
-0.066, 1.637e-9
-0.064, 1.648e-9
-0.062, 1.661e-9
-0.060, 1.671e-9
-0.058, 1.685e-9
-0.056, 1.698e-9
-0.054, 1.711e-9
-0.052, 1.723e-9
-0.050, 1.733e-9
-0.048, 1.743e-9
-0.046, 1.755e-9
-0.044, 1.767e-9
-0.042, 1.779e-9
-0.040, 1.791e-9
-0.038, 1.802e-9
-0.036, 1.814e-9
-0.034, 1.827e-9
-0.032, 1.837e-9
-0.030, 1.850e-9
-0.028, 1.861e-9
-0.026, 1.871e-9
-0.024, 1.882e-9
-0.022, 1.895e-9
-0.020, 1.910e-9
-0.018, 1.921e-9
-0.016, 1.933e-9
-0.014, 1.945e-9
-0.012, 1.956e-9
-0.010, 1.968e-9
-0.008, 1.978e-9
-0.006, 1.991e-9
-0.004, 2.004e-9
-0.002, 2.016e-9
0.000, 2.026e-9
0.002, 2.036e-9
0.004, 2.047e-9
0.006, 2.060e-9
0.008, 2.072e-9
0.010, 2.082e-9
0.012, 2.094e-9
0.014, 2.104e-9
0.016, 2.115e-9
0.018, 2.127e-9
0.020, 2.142e-9
0.022, 2.154e-9
0.024, 2.168e-9
0.026, 2.181e-9
0.028, 2.193e-9
0.030, 2.206e-9
0.032, 2.220e-9
0.034, 2.230e-9
0.036, 2.243e-9
0.038, 2.255e-9
0.040, 2.268e-9
0.042, 2.279e-9
0.044, 2.294e-9
0.046, 2.307e-9
0.048, 2.319e-9
0.050, 2.333e-9
0.052, 2.346e-9
0.054, 2.358e-9
0.056, 2.370e-9
0.058, 2.384e-9
0.060, 2.397e-9
0.062, 2.410e-9
0.064, 2.421e-9
0.066, 2.435e-9
0.068, 2.448e-9
0.070, 2.463e-9
0.072, 2.478e-9
0.074, 2.491e-9
0.076, 2.506e-9
0.078, 2.520e-9
0.080, 2.534e-9
0.082, 2.548e-9
0.084, 2.562e-9
0.086, 2.575e-9
0.088, 2.589e-9
0.090, 2.603e-9
0.092, 2.620e-9
0.094, 2.635e-9
0.096, 2.655e-9
0.098, 2.675e-9
0.100, 2.700e-9
0.102, 2.734e-9
0.104, 2.782e-9
0.106, 2.840e-9
0.108, 2.941e-9
0.110, 3.090e-9
0.112, 3.299e-9
0.114, 3.591e-9
0.116, 3.947e-9
0.118, 4.332e-9
0.120, 4.632e-9
0.122, 4.803e-9
0.124, 4.796e-9
0.126, 4.711e-9
0.128, 4.516e-9
0.130, 4.300e-9
0.132, 4.075e-9
0.134, 3.863e-9
0.136, 3.640e-9
0.138, 3.462e-9
0.140, 3.302e-9
0.142, 3.190e-9
0.144, 3.104e-9
0.146, 3.061e-9
0.148, 3.036e-9
0.150, 3.016e-9
0.152, 3.002e-9
0.154, 2.997e-9
0.156, 2.990e-9
0.158, 2.991e-9
0.160, 2.992e-9
0.162, 2.998e-9
0.164, 2.998e-9
0.166, 3.002e-9
0.168, 3.006e-9
0.170, 3.013e-9
0.172, 3.017e-9
0.174, 3.021e-9
0.176, 3.029e-9
0.178, 3.032e-9
0.180, 3.036e-9
0.182, 3.040e-9
0.184, 3.046e-9
0.186, 3.053e-9
0.188, 3.058e-9
0.190, 3.064e-9
0.192, 3.068e-9
0.194, 3.074e-9
0.196, 3.080e-9
0.198, 3.086e-9
0.200, 3.091e-9
0.202, 3.095e-9
0.204, 3.100e-9
0.206, 3.104e-9
0.208, 3.109e-9
0.210, 3.113e-9
0.212, 3.119e-9
0.214, 3.127e-9
0.216, 3.135e-9
0.218, 3.141e-9
0.220, 3.146e-9
0.222, 3.152e-9
0.224, 3.159e-9
0.226, 3.164e-9
0.228, 3.169e-9
0.230, 3.175e-9
0.232, 3.181e-9
0.234, 3.187e-9
0.236, 3.192e-9
0.238, 3.198e-9
0.240, 3.204e-9
0.242, 3.206e-9
0.244, 3.212e-9
0.246, 3.217e-9
0.248, 3.222e-9
0.250, 3.229e-9
0.252, 3.235e-9
0.254, 3.241e-9
0.256, 3.245e-9
0.258, 3.249e-9
0.260, 3.257e-9
0.262, 3.261e-9
0.264, 3.267e-9
0.266, 3.270e-9
0.268, 3.276e-9
0.270, 3.283e-9
0.272, 3.288e-9
0.274, 3.294e-9
0.276, 3.299e-9
0.278, 3.305e-9
0.280, 3.311e-9
0.282, 3.316e-9
0.284, 3.322e-9
0.286, 3.327e-9
0.288, 3.334e-9
0.290, 3.340e-9
0.292, 3.345e-9
0.294, 3.352e-9
0.296, 3.358e-9
0.298, 3.365e-9
0.300, 3.373e-9
0.302, 3.381e-9
0.304, 3.389e-9
0.306, 3.394e-9
0.308, 3.406e-9
0.310, 3.414e-9
0.312, 3.419e-9
0.314, 3.428e-9
0.316, 3.434e-9
0.318, 3.442e-9
0.320, 3.449e-9
0.322, 3.455e-9
0.324, 3.464e-9
0.326, 3.473e-9
0.328, 3.480e-9
0.330, 3.489e-9
0.332, 3.496e-9
0.334, 3.504e-9
0.336, 3.515e-9
0.338, 3.521e-9
0.340, 3.529e-9
0.342, 3.537e-9
0.344, 3.546e-9
0.346, 3.553e-9
0.348, 3.561e-9
0.350, 3.570e-9
0.352, 3.578e-9
0.354, 3.585e-9
0.356, 3.595e-9
0.358, 3.605e-9
0.360, 3.614e-9
0.362, 3.625e-9
0.364, 3.637e-9
0.366, 3.647e-9
0.368, 3.656e-9
0.370, 3.667e-9
0.372, 3.678e-9
0.374, 3.689e-9
0.376, 3.697e-9
0.378, 3.708e-9
0.380, 3.717e-9
0.382, 3.727e-9
0.384, 3.737e-9
0.386, 3.749e-9
0.388, 3.760e-9
0.390, 3.770e-9
0.392, 3.779e-9
0.394, 3.790e-9
0.396, 3.800e-9
0.398, 3.809e-9
0.400, 3.818e-9
0.402, 3.829e-9
0.404, 3.840e-9
0.406, 3.852e-9
0.408, 3.864e-9
0.410, 3.868e-9
0.412, 3.884e-9
0.414, 3.895e-9
0.416, 3.907e-9
0.418, 3.918e-9
0.420, 3.929e-9
0.422, 3.942e-9
0.424, 3.953e-9
0.426, 3.966e-9
0.428, 3.976e-9
0.430, 3.989e-9
0.432, 4.005e-9
0.434, 4.016e-9
0.436, 4.028e-9
0.438, 4.040e-9
0.440, 4.049e-9
0.442, 4.060e-9
0.444, 4.073e-9
0.446, 4.085e-9
0.448, 4.098e-9
0.450, 4.113e-9
0.452, 4.126e-9
0.454, 4.143e-9
0.456, 4.156e-9
0.458, 4.171e-9
0.460, 4.186e-9
0.462, 4.202e-9
0.464, 4.209e-9
0.466, 4.224e-9
0.468, 4.239e-9
0.470, 4.252e-9
0.472, 4.265e-9
0.474, 4.277e-9
0.476, 4.292e-9
0.478, 4.304e-9
0.480, 4.316e-9
0.482, 4.333e-9
0.484, 4.346e-9
0.486, 4.360e-9
0.488, 4.375e-9
0.490, 4.390e-9
0.492, 4.408e-9
0.494, 4.424e-9
0.496, 4.438e-9
0.498, 4.453e-9
0.500, 4.431e-9
0.498, 4.163e-9
0.496, 4.010e-9
0.494, 3.884e-9
0.492, 3.781e-9
0.490, 3.686e-9
0.488, 3.593e-9
0.486, 3.517e-9
0.484, 3.441e-9
0.482, 3.368e-9
0.480, 3.303e-9
0.478, 3.240e-9
0.476, 3.178e-9
0.474, 3.113e-9
0.472, 3.060e-9
0.470, 3.008e-9
0.468, 2.956e-9
0.466, 2.907e-9
0.464, 2.860e-9
0.462, 2.815e-9
0.460, 2.769e-9
0.458, 2.726e-9
0.456, 2.682e-9
0.454, 2.634e-9
0.452, 2.596e-9
0.450, 2.558e-9
0.448, 2.522e-9
0.446, 2.486e-9
0.444, 2.448e-9
0.442, 2.412e-9
0.440, 2.376e-9
0.438, 2.342e-9
0.436, 2.307e-9
0.434, 2.273e-9
0.432, 2.241e-9
0.430, 2.209e-9
0.428, 2.177e-9
0.426, 2.144e-9
0.424, 2.115e-9
0.422, 2.088e-9
0.420, 2.061e-9
0.418, 2.031e-9
0.416, 2.002e-9
0.414, 1.976e-9
0.412, 1.948e-9
0.410, 1.921e-9
0.408, 1.894e-9
0.406, 1.867e-9
0.404, 1.839e-9
0.402, 1.810e-9
0.400, 1.786e-9
0.398, 1.761e-9
0.396, 1.736e-9
0.394, 1.711e-9
0.392, 1.685e-9
0.390, 1.658e-9
0.388, 1.634e-9
0.386, 1.611e-9
0.384, 1.591e-9
0.382, 1.567e-9
0.380, 1.544e-9
0.378, 1.520e-9
0.376, 1.498e-9
0.374, 1.477e-9
0.372, 1.454e-9
0.370, 1.431e-9
0.368, 1.408e-9
0.366, 1.385e-9
0.364, 1.362e-9
0.362, 1.341e-9
0.360, 1.320e-9
0.358, 1.300e-9
0.356, 1.278e-9
0.354, 1.257e-9
0.352, 1.237e-9
0.350, 1.217e-9
0.348, 1.195e-9
0.346, 1.172e-9
0.344, 1.151e-9
0.342, 1.134e-9
0.340, 1.115e-9
0.338, 1.098e-9
0.336, 1.080e-9
0.334, 1.059e-9
0.332, 1.040e-9
0.330, 1.022e-9
0.328, 1.005e-9
0.326, 9.855e-10
0.324, 9.673e-10
0.322, 9.464e-10
0.320, 9.284e-10
0.318, 9.093e-10
0.316, 8.905e-10
0.314, 8.718e-10
0.312, 8.543e-10
0.310, 8.373e-10
0.308, 8.174e-10
0.306, 7.961e-10
0.304, 7.805e-10
0.302, 7.644e-10
0.300, 7.467e-10
0.298, 7.298e-10
0.296, 7.125e-10
0.294, 6.957e-10
0.292, 6.760e-10
0.290, 6.598e-10
0.288, 6.433e-10
0.286, 6.278e-10
0.284, 6.116e-10
0.282, 5.930e-10
0.280, 5.765e-10
0.278, 5.598e-10
0.276, 5.430e-10
0.274, 5.275e-10
0.272, 5.118e-10
0.270, 4.928e-10
0.268, 4.738e-10
0.266, 4.553e-10
0.264, 4.351e-10
0.262, 4.176e-10
0.260, 4.028e-10
0.258, 3.890e-10
0.256, 3.740e-10
0.254, 3.609e-10
0.252, 3.433e-10
0.250, 3.278e-10
0.248, 3.125e-10
0.246, 2.972e-10
0.244, 2.816e-10
0.242, 2.665e-10
0.240, 2.496e-10
0.238, 2.329e-10
0.236, 2.150e-10
0.234, 1.961e-10
0.232, 1.807e-10
0.230, 1.671e-10
0.228, 1.533e-10
0.226, 1.407e-10
0.224, 1.250e-10
0.222, 1.105e-10
0.220, 9.460e-11
0.218, 7.832e-11
0.216, 6.252e-11
0.214, 4.800e-11
0.212, 3.260e-11
0.210, 1.768e-11
0.208, 2.340e-13
0.206, -1.741e-11
0.204, -3.047e-11
0.202, -4.997e-11
0.200, -6.713e-11
0.198, -8.194e-11
0.196, -9.754e-11
0.194, -1.126e-10
0.192, -1.290e-10
0.190, -1.441e-10
0.188, -1.600e-10
0.186, -1.752e-10
0.184, -1.919e-10
0.182, -2.067e-10
0.180, -2.252e-10
0.178, -2.406e-10
0.176, -2.589e-10
0.174, -2.774e-10
0.172, -2.977e-10
0.170, -3.144e-10
0.168, -3.287e-10
0.166, -3.442e-10
0.164, -3.608e-10
0.162, -3.764e-10
0.160, -3.933e-10
0.158, -4.103e-10
0.156, -4.286e-10
0.154, -4.441e-10
0.152, -4.616e-10
0.150, -4.786e-10
0.148, -4.997e-10
0.146, -5.192e-10
0.144, -5.404e-10
0.142, -5.588e-10
0.140, -5.760e-10
0.138, -5.932e-10
0.136, -6.102e-10
0.134, -6.292e-10
0.132, -6.476e-10
0.130, -6.654e-10
0.128, -6.842e-10
0.126, -7.034e-10
0.124, -7.218e-10
0.122, -7.437e-10
0.120, -7.643e-10
0.118, -7.842e-10
0.116, -8.049e-10
0.114, -8.221e-10
0.112, -8.398e-10
0.110, -8.578e-10
0.108, -8.780e-10
0.106, -8.988e-10
0.104, -9.181e-10
0.102, -9.436e-10
0.100, -9.618e-10
0.098, -9.826e-10
0.096, -1.006e-9
0.094, -1.028e-9
0.092, -1.048e-9
0.090, -1.068e-9
0.088, -1.089e-9
0.086, -1.108e-9
0.084, -1.130e-9
0.082, -1.152e-9
0.080, -1.171e-9
0.078, -1.192e-9
0.076, -1.213e-9
0.074, -1.236e-9
0.072, -1.259e-9
0.070, -1.281e-9
0.068, -1.301e-9
0.066, -1.318e-9
0.064, -1.338e-9
0.062, -1.358e-9
0.060, -1.378e-9
0.058, -1.400e-9
0.056, -1.420e-9
0.054, -1.440e-9
0.052, -1.461e-9
0.050, -1.481e-9
0.048, -1.504e-9
0.046, -1.525e-9
0.044, -1.546e-9
0.042, -1.565e-9
0.040, -1.584e-9
0.038, -1.601e-9
0.036, -1.621e-9
0.034, -1.638e-9
0.032, -1.657e-9
0.030, -1.674e-9
0.028, -1.693e-9
0.026, -1.710e-9
0.024, -1.729e-9
0.022, -1.748e-9
0.020, -1.769e-9
0.018, -1.785e-9
0.016, -1.800e-9
0.014, -1.817e-9
0.012, -1.833e-9
0.010, -1.851e-9
0.008, -1.868e-9
0.006, -1.884e-9
0.004, -1.901e-9
0.002, -1.918e-9
-0.000, -1.929e-9
-0.002, -1.944e-9
-0.004, -1.958e-9
-0.006, -1.977e-9
-0.008, -1.992e-9
-0.010, -2.007e-9
-0.012, -2.022e-9
-0.014, -2.035e-9
-0.016, -2.050e-9
-0.018, -2.067e-9
-0.020, -2.085e-9
-0.022, -2.104e-9
-0.024, -2.128e-9
-0.026, -2.148e-9
-0.028, -2.171e-9
-0.030, -2.203e-9
-0.032, -2.231e-9
-0.034, -2.259e-9
-0.036, -2.291e-9
-0.038, -2.322e-9
-0.040, -2.361e-9
-0.042, -2.395e-9
-0.044, -2.433e-9
-0.046, -2.468e-9
-0.048, -2.502e-9
-0.050, -2.533e-9
-0.052, -2.561e-9
-0.054, -2.582e-9
-0.056, -2.582e-9
-0.058, -2.586e-9
-0.060, -2.600e-9
-0.062, -2.584e-9
-0.064, -2.564e-9
-0.066, -2.556e-9
-0.068, -2.547e-9
-0.070, -2.515e-9
-0.072, -2.486e-9
-0.074, -2.463e-9
-0.076, -2.460e-9
-0.078, -2.445e-9
-0.080, -2.435e-9
-0.082, -2.453e-9
-0.084, -2.431e-9
-0.086, -2.435e-9
-0.088, -2.440e-9
-0.090, -2.424e-9
-0.092, -2.468e-9
-0.094, -2.452e-9
-0.096, -2.443e-9
-0.098, -2.441e-9
-0.100, -2.452e-9
-0.102, -2.443e-9
-0.104, -2.460e-9
-0.106, -2.469e-9
-0.108, -2.460e-9
-0.110, -2.480e-9
-0.112, -2.473e-9
-0.114, -2.480e-9
-0.116, -2.479e-9
-0.118, -2.488e-9
-0.120, -2.500e-9
-0.122, -2.487e-9
-0.124, -2.488e-9
-0.126, -2.491e-9
-0.128, -2.501e-9
-0.130, -2.500e-9
-0.132, -2.518e-9
-0.134, -2.511e-9
-0.136, -2.510e-9
-0.138, -2.524e-9
-0.140, -2.527e-9
-0.142, -2.532e-9
-0.144, -2.533e-9
-0.146, -2.537e-9
-0.148, -2.542e-9
-0.150, -2.547e-9
-0.152, -2.550e-9
-0.154, -2.556e-9
-0.156, -2.564e-9
-0.158, -2.567e-9
-0.160, -2.579e-9
-0.162, -2.582e-9
-0.164, -2.584e-9
-0.166, -2.590e-9
-0.168, -2.594e-9
-0.170, -2.598e-9
-0.172, -2.605e-9
-0.174, -2.611e-9
-0.176, -2.616e-9
-0.178, -2.623e-9
-0.180, -2.627e-9
-0.182, -2.633e-9
-0.184, -2.639e-9
-0.186, -2.647e-9
-0.188, -2.651e-9
-0.190, -2.655e-9
-0.192, -2.661e-9
-0.194, -2.667e-9
-0.196, -2.672e-9
-0.198, -2.678e-9
-0.200, -2.686e-9
-0.202, -2.694e-9
-0.204, -2.695e-9
-0.206, -2.700e-9
-0.208, -2.711e-9
-0.210, -2.717e-9
-0.212, -2.728e-9
-0.214, -2.727e-9
-0.216, -2.735e-9
-0.218, -2.741e-9
-0.220, -2.754e-9
-0.222, -2.751e-9
-0.224, -2.756e-9
-0.226, -2.761e-9
-0.228, -2.768e-9
-0.230, -2.772e-9
-0.232, -2.776e-9
-0.234, -2.782e-9
-0.236, -2.787e-9
-0.238, -2.795e-9
-0.240, -2.800e-9
-0.242, -2.805e-9
-0.244, -2.810e-9
-0.246, -2.816e-9
-0.248, -2.821e-9
-0.250, -2.828e-9
-0.252, -2.837e-9
-0.254, -2.839e-9
-0.256, -2.845e-9
-0.258, -2.851e-9
-0.260, -2.857e-9
-0.262, -2.862e-9
-0.264, -2.867e-9
-0.266, -2.872e-9
-0.268, -2.880e-9
-0.270, -2.885e-9
-0.272, -2.887e-9
-0.274, -2.892e-9
-0.276, -2.897e-9
-0.278, -2.903e-9
-0.280, -2.907e-9
-0.282, -2.912e-9
-0.284, -2.916e-9
-0.286, -2.920e-9
-0.288, -2.925e-9
-0.290, -2.930e-9
-0.292, -2.933e-9
-0.294, -2.938e-9
-0.296, -2.942e-9
-0.298, -2.948e-9
-0.300, -2.952e-9
-0.302, -2.958e-9
-0.304, -2.962e-9
-0.306, -2.965e-9
-0.308, -2.976e-9
-0.310, -2.979e-9
-0.312, -2.983e-9
-0.314, -2.988e-9
-0.316, -2.991e-9
-0.318, -2.994e-9
-0.320, -2.996e-9
-0.322, -3.000e-9
-0.324, -3.002e-9
-0.326, -3.006e-9
-0.328, -3.009e-9
-0.330, -3.013e-9
-0.332, -3.017e-9
-0.334, -3.021e-9
-0.336, -3.023e-9
-0.338, -3.026e-9
-0.340, -3.029e-9
-0.342, -3.033e-9
-0.344, -3.035e-9
-0.346, -3.038e-9
-0.348, -3.042e-9
-0.350, -3.043e-9
-0.352, -3.048e-9
-0.354, -3.053e-9
-0.356, -3.056e-9
-0.358, -3.058e-9
-0.360, -3.060e-9
-0.362, -3.064e-9
-0.364, -3.069e-9
-0.366, -3.073e-9
-0.368, -3.075e-9
-0.370, -3.076e-9
-0.372, -3.080e-9
-0.374, -3.085e-9
-0.376, -3.088e-9
-0.378, -3.091e-9
-0.380, -3.095e-9
-0.382, -3.097e-9
-0.384, -3.099e-9
-0.386, -3.103e-9
-0.388, -3.107e-9
-0.390, -3.110e-9
-0.392, -3.114e-9
-0.394, -3.114e-9
-0.396, -3.120e-9
-0.398, -3.122e-9
-0.400, -3.125e-9
-0.402, -3.130e-9
-0.404, -3.134e-9
-0.406, -3.137e-9
-0.408, -3.138e-9
-0.410, -3.144e-9
-0.412, -3.147e-9
-0.414, -3.149e-9
-0.416, -3.152e-9
-0.418, -3.157e-9
-0.420, -3.159e-9
-0.422, -3.163e-9
-0.424, -3.167e-9
-0.426, -3.170e-9
-0.428, -3.174e-9
-0.430, -3.179e-9
-0.432, -3.184e-9
-0.434, -3.186e-9
-0.436, -3.189e-9
-0.438, -3.192e-9
-0.440, -3.197e-9
-0.442, -3.203e-9
-0.444, -3.207e-9
-0.446, -3.212e-9
-0.448, -3.216e-9
-0.450, -3.221e-9
-0.452, -3.226e-9
-0.454, -3.230e-9
-0.456, -3.235e-9
-0.458, -3.239e-9
-0.460, -3.242e-9
-0.462, -3.246e-9
-0.464, -3.249e-9
-0.466, -3.254e-9
-0.468, -3.260e-9
-0.470, -3.266e-9
-0.472, -3.269e-9
-0.474, -3.273e-9
-0.476, -3.279e-9
-0.478, -3.282e-9
-0.480, -3.287e-9
-0.482, -3.292e-9
-0.484, -3.296e-9
-0.486, -3.300e-9
-0.488, -3.307e-9
-0.490, -3.313e-9
-0.492, -3.317e-9
-0.494, -3.322e-9
-0.496, -3.326e-9
-0.498, -3.332e-9
-0.499, -3.334e-9