File: Fig 4/Fig 3c CV surface dark/CV_surface_dark_9.txt
Nov. 20, 2024   15:56:34
Cyclic Voltammetry
File: +12 2319-1 fto cv_cells_dark_surface_9.bin
Data Source:  Experiment
Instrument Model:  CHI920C
Ref. Electrode:
Header:
Note:

Init E (V) = -0.5
High E (V) = 0.5
Low E (V) = -0.5
Init P/N = P
Scan Rate (V/s) = 0.05
Segment = 2
Sample Interval (V) = 0.001
Quiet Time (sec) = 10
Sensitivity (A/V) = 1e-7

Results:

Channel 1:
Segment 1:
Ep = 0.120V
ip = 2.494e-9A
Ah = 4.932e-10C

Segment 2:

Potential/V, Current/A

-0.500, -1.272e-9
-0.498, -1.143e-9
-0.496, -1.076e-9
-0.494, -1.026e-9
-0.492, -9.794e-10
-0.490, -9.436e-10
-0.488, -9.115e-10
-0.486, -8.842e-10
-0.484, -8.586e-10
-0.482, -8.351e-10
-0.480, -8.132e-10
-0.478, -7.925e-10
-0.476, -7.695e-10
-0.474, -7.475e-10
-0.472, -7.281e-10
-0.470, -7.091e-10
-0.468, -6.894e-10
-0.466, -6.723e-10
-0.464, -6.552e-10
-0.462, -6.389e-10
-0.460, -6.222e-10
-0.458, -6.068e-10
-0.456, -5.905e-10
-0.454, -5.760e-10
-0.452, -5.612e-10
-0.450, -5.463e-10
-0.448, -5.301e-10
-0.446, -5.139e-10
-0.444, -4.952e-10
-0.442, -4.787e-10
-0.440, -4.633e-10
-0.438, -4.510e-10
-0.436, -4.374e-10
-0.434, -4.239e-10
-0.432, -4.106e-10
-0.430, -3.974e-10
-0.428, -3.835e-10
-0.426, -3.709e-10
-0.424, -3.571e-10
-0.422, -3.470e-10
-0.420, -3.348e-10
-0.418, -3.231e-10
-0.416, -3.108e-10
-0.414, -2.970e-10
-0.412, -2.848e-10
-0.410, -2.716e-10
-0.408, -2.544e-10
-0.406, -2.413e-10
-0.404, -2.261e-10
-0.402, -2.153e-10
-0.400, -2.030e-10
-0.398, -1.906e-10
-0.396, -1.797e-10
-0.394, -1.668e-10
-0.392, -1.550e-10
-0.390, -1.432e-10
-0.388, -1.322e-10
-0.386, -1.218e-10
-0.384, -1.091e-10
-0.382, -9.783e-11
-0.380, -8.721e-11
-0.378, -7.395e-11
-0.376, -6.293e-11
-0.374, -5.221e-11
-0.372, -3.915e-11
-0.370, -2.560e-11
-0.368, -1.273e-11
-0.366, 7.214e-13
-0.364, 1.115e-11
-0.362, 2.460e-11
-0.360, 3.562e-11
-0.358, 4.410e-11
-0.356, 5.590e-11
-0.354, 6.808e-11
-0.352, 7.851e-11
-0.350, 9.070e-11
-0.348, 1.019e-10
-0.346, 1.123e-10
-0.344, 1.226e-10
-0.342, 1.344e-10
-0.340, 1.444e-10
-0.338, 1.546e-10
-0.336, 1.643e-10
-0.334, 1.745e-10
-0.332, 1.841e-10
-0.330, 1.947e-10
-0.328, 2.089e-10
-0.326, 2.226e-10
-0.324, 2.351e-10
-0.322, 2.474e-10
-0.320, 2.575e-10
-0.318, 2.690e-10
-0.316, 2.803e-10
-0.314, 2.917e-10
-0.312, 3.029e-10
-0.310, 3.136e-10
-0.308, 3.229e-10
-0.306, 3.375e-10
-0.304, 3.464e-10
-0.302, 3.583e-10
-0.300, 3.693e-10
-0.298, 3.800e-10
-0.296, 3.893e-10
-0.294, 3.986e-10
-0.292, 4.096e-10
-0.290, 4.210e-10
-0.288, 4.326e-10
-0.286, 4.461e-10
-0.284, 4.581e-10
-0.282, 4.713e-10
-0.280, 4.861e-10
-0.278, 4.975e-10
-0.276, 5.090e-10
-0.274, 5.217e-10
-0.272, 5.343e-10
-0.270, 5.460e-10
-0.268, 5.551e-10
-0.266, 5.676e-10
-0.264, 5.786e-10
-0.262, 5.906e-10
-0.260, 6.031e-10
-0.258, 6.134e-10
-0.256, 6.240e-10
-0.254, 6.358e-10
-0.252, 6.455e-10
-0.250, 6.561e-10
-0.248, 6.683e-10
-0.246, 6.787e-10
-0.244, 6.933e-10
-0.242, 7.041e-10
-0.240, 7.157e-10
-0.238, 7.280e-10
-0.236, 7.405e-10
-0.234, 7.504e-10
-0.232, 7.619e-10
-0.230, 7.719e-10
-0.228, 7.824e-10
-0.226, 7.943e-10
-0.224, 8.062e-10
-0.222, 8.184e-10
-0.220, 8.309e-10
-0.218, 8.423e-10
-0.216, 8.537e-10
-0.214, 8.658e-10
-0.212, 8.770e-10
-0.210, 8.900e-10
-0.208, 9.009e-10
-0.206, 9.134e-10
-0.204, 9.233e-10
-0.202, 9.361e-10
-0.200, 9.504e-10
-0.198, 9.616e-10
-0.196, 9.735e-10
-0.194, 9.847e-10
-0.192, 9.956e-10
-0.190, 1.007e-9
-0.188, 1.019e-9
-0.186, 1.030e-9
-0.184, 1.042e-9
-0.182, 1.054e-9
-0.180, 1.066e-9
-0.178, 1.077e-9
-0.176, 1.088e-9
-0.174, 1.101e-9
-0.172, 1.111e-9
-0.170, 1.122e-9
-0.168, 1.131e-9
-0.166, 1.143e-9
-0.164, 1.156e-9
-0.162, 1.167e-9
-0.160, 1.181e-9
-0.158, 1.193e-9
-0.156, 1.204e-9
-0.154, 1.216e-9
-0.152, 1.229e-9
-0.150, 1.240e-9
-0.148, 1.253e-9
-0.146, 1.263e-9
-0.144, 1.274e-9
-0.142, 1.286e-9
-0.140, 1.297e-9
-0.138, 1.310e-9
-0.136, 1.323e-9
-0.134, 1.334e-9
-0.132, 1.347e-9
-0.130, 1.359e-9
-0.128, 1.371e-9
-0.126, 1.381e-9
-0.124, 1.394e-9
-0.122, 1.407e-9
-0.120, 1.418e-9
-0.118, 1.431e-9
-0.116, 1.443e-9
-0.114, 1.455e-9
-0.112, 1.466e-9
-0.110, 1.476e-9
-0.108, 1.491e-9
-0.106, 1.501e-9
-0.104, 1.513e-9
-0.102, 1.530e-9
-0.100, 1.539e-9
-0.098, 1.549e-9
-0.096, 1.561e-9
-0.094, 1.574e-9
-0.092, 1.586e-9
-0.090, 1.597e-9
-0.088, 1.607e-9
-0.086, 1.618e-9
-0.084, 1.628e-9
-0.082, 1.642e-9
-0.080, 1.652e-9
-0.078, 1.666e-9
-0.076, 1.677e-9
-0.074, 1.691e-9
-0.072, 1.702e-9
-0.070, 1.713e-9
-0.068, 1.726e-9
-0.066, 1.737e-9
-0.064, 1.749e-9
-0.062, 1.761e-9
-0.060, 1.772e-9
-0.058, 1.785e-9
-0.056, 1.796e-9
-0.054, 1.808e-9
-0.052, 1.820e-9
-0.050, 1.832e-9
-0.048, 1.843e-9
-0.046, 1.855e-9
-0.044, 1.869e-9
-0.042, 1.879e-9
-0.040, 1.890e-9
-0.038, 1.904e-9
-0.036, 1.916e-9
-0.034, 1.927e-9
-0.032, 1.940e-9
-0.030, 1.951e-9
-0.028, 1.962e-9
-0.026, 1.974e-9
-0.024, 1.985e-9
-0.022, 1.995e-9
-0.020, 2.008e-9
-0.018, 2.022e-9
-0.016, 2.034e-9
-0.014, 2.047e-9
-0.012, 2.057e-9
-0.010, 2.069e-9
-0.008, 2.080e-9
-0.006, 2.090e-9
-0.004, 2.101e-9
-0.002, 2.110e-9
0.000, 2.120e-9
0.002, 2.131e-9
0.004, 2.145e-9
0.006, 2.158e-9
0.008, 2.173e-9
0.010, 2.186e-9
0.012, 2.198e-9
0.014, 2.209e-9
0.016, 2.223e-9
0.018, 2.235e-9
0.020, 2.246e-9
0.022, 2.258e-9
0.024, 2.273e-9
0.026, 2.284e-9
0.028, 2.297e-9
0.030, 2.310e-9
0.032, 2.324e-9
0.034, 2.335e-9
0.036, 2.347e-9
0.038, 2.359e-9
0.040, 2.371e-9
0.042, 2.384e-9
0.044, 2.398e-9
0.046, 2.411e-9
0.048, 2.424e-9
0.050, 2.437e-9
0.052, 2.448e-9
0.054, 2.460e-9
0.056, 2.474e-9
0.058, 2.487e-9
0.060, 2.500e-9
0.062, 2.514e-9
0.064, 2.526e-9
0.066, 2.541e-9
0.068, 2.553e-9
0.070, 2.567e-9
0.072, 2.580e-9
0.074, 2.591e-9
0.076, 2.606e-9
0.078, 2.618e-9
0.080, 2.632e-9
0.082, 2.650e-9
0.084, 2.667e-9
0.086, 2.684e-9
0.088, 2.701e-9
0.090, 2.716e-9
0.092, 2.734e-9
0.094, 2.752e-9
0.096, 2.772e-9
0.098, 2.798e-9
0.100, 2.828e-9
0.102, 2.878e-9
0.104, 2.959e-9
0.106, 3.073e-9
0.108, 3.259e-9
0.110, 3.514e-9
0.112, 3.836e-9
0.114, 4.275e-9
0.116, 4.693e-9
0.118, 5.108e-9
0.120, 5.305e-9
0.122, 5.203e-9
0.124, 4.859e-9
0.126, 4.554e-9
0.128, 4.287e-9
0.130, 4.017e-9
0.132, 3.777e-9
0.134, 3.567e-9
0.136, 3.412e-9
0.138, 3.301e-9
0.140, 3.228e-9
0.142, 3.183e-9
0.144, 3.153e-9
0.146, 3.135e-9
0.148, 3.123e-9
0.150, 3.112e-9
0.152, 3.108e-9
0.154, 3.102e-9
0.156, 3.102e-9
0.158, 3.104e-9
0.160, 3.104e-9
0.162, 3.103e-9
0.164, 3.110e-9
0.166, 3.112e-9
0.168, 3.117e-9
0.170, 3.120e-9
0.172, 3.128e-9
0.174, 3.137e-9
0.176, 3.142e-9
0.178, 3.146e-9
0.180, 3.153e-9
0.182, 3.159e-9
0.184, 3.166e-9
0.186, 3.175e-9
0.188, 3.179e-9
0.190, 3.185e-9
0.192, 3.194e-9
0.194, 3.198e-9
0.196, 3.203e-9
0.198, 3.209e-9
0.200, 3.215e-9
0.202, 3.221e-9
0.204, 3.226e-9
0.206, 3.229e-9
0.208, 3.232e-9
0.210, 3.237e-9
0.212, 3.245e-9
0.214, 3.251e-9
0.216, 3.255e-9
0.218, 3.262e-9
0.220, 3.266e-9
0.222, 3.271e-9
0.224, 3.276e-9
0.226, 3.284e-9
0.228, 3.288e-9
0.230, 3.293e-9
0.232, 3.295e-9
0.234, 3.301e-9
0.236, 3.307e-9
0.238, 3.310e-9
0.240, 3.315e-9
0.242, 3.319e-9
0.244, 3.325e-9
0.246, 3.329e-9
0.248, 3.334e-9
0.250, 3.338e-9
0.252, 3.342e-9
0.254, 3.347e-9
0.256, 3.352e-9
0.258, 3.359e-9
0.260, 3.364e-9
0.262, 3.368e-9
0.264, 3.374e-9
0.266, 3.378e-9
0.268, 3.385e-9
0.270, 3.392e-9
0.272, 3.400e-9
0.274, 3.401e-9
0.276, 3.406e-9
0.278, 3.413e-9
0.280, 3.420e-9
0.282, 3.424e-9
0.284, 3.431e-9
0.286, 3.439e-9
0.288, 3.443e-9
0.290, 3.448e-9
0.292, 3.454e-9
0.294, 3.461e-9
0.296, 3.469e-9
0.298, 3.474e-9
0.300, 3.480e-9
0.302, 3.485e-9
0.304, 3.492e-9
0.306, 3.499e-9
0.308, 3.512e-9
0.310, 3.518e-9
0.312, 3.528e-9
0.314, 3.540e-9
0.316, 3.534e-9
0.318, 3.543e-9
0.320, 3.550e-9
0.322, 3.556e-9
0.324, 3.563e-9
0.326, 3.569e-9
0.328, 3.577e-9
0.330, 3.584e-9
0.332, 3.591e-9
0.334, 3.599e-9
0.336, 3.609e-9
0.338, 3.617e-9
0.340, 3.628e-9
0.342, 3.639e-9
0.344, 3.648e-9
0.346, 3.655e-9
0.348, 3.666e-9
0.350, 3.676e-9
0.352, 3.686e-9
0.354, 3.694e-9
0.356, 3.702e-9
0.358, 3.712e-9
0.360, 3.722e-9
0.362, 3.732e-9
0.364, 3.741e-9
0.366, 3.751e-9
0.368, 3.760e-9
0.370, 3.770e-9
0.372, 3.779e-9
0.374, 3.788e-9
0.376, 3.798e-9
0.378, 3.808e-9
0.380, 3.819e-9
0.382, 3.827e-9
0.384, 3.837e-9
0.386, 3.848e-9
0.388, 3.858e-9
0.390, 3.868e-9
0.392, 3.879e-9
0.394, 3.891e-9
0.396, 3.901e-9
0.398, 3.911e-9
0.400, 3.923e-9
0.402, 3.933e-9
0.404, 3.946e-9
0.406, 3.956e-9
0.408, 3.966e-9
0.410, 3.970e-9
0.412, 3.986e-9
0.414, 3.998e-9
0.416, 4.010e-9
0.418, 4.023e-9
0.420, 4.034e-9
0.422, 4.046e-9
0.424, 4.057e-9
0.426, 4.067e-9
0.428, 4.078e-9
0.430, 4.090e-9
0.432, 4.104e-9
0.434, 4.116e-9
0.436, 4.131e-9
0.438, 4.146e-9
0.440, 4.159e-9
0.442, 4.172e-9
0.444, 4.187e-9
0.446, 4.201e-9
0.448, 4.213e-9
0.450, 4.225e-9
0.452, 4.238e-9
0.454, 4.251e-9
0.456, 4.265e-9
0.458, 4.278e-9
0.460, 4.289e-9
0.462, 4.301e-9
0.464, 4.314e-9
0.466, 4.327e-9
0.468, 4.341e-9
0.470, 4.356e-9
0.472, 4.370e-9
0.474, 4.385e-9
0.476, 4.399e-9
0.478, 4.414e-9
0.480, 4.430e-9
0.482, 4.444e-9
0.484, 4.459e-9
0.486, 4.473e-9
0.488, 4.490e-9
0.490, 4.506e-9
0.492, 4.521e-9
0.494, 4.537e-9
0.496, 4.550e-9
0.498, 4.565e-9
0.500, 4.547e-9
0.498, 4.270e-9
0.496, 4.109e-9
0.494, 3.989e-9
0.492, 3.883e-9
0.490, 3.784e-9
0.488, 3.704e-9
0.486, 3.613e-9
0.484, 3.540e-9
0.482, 3.468e-9
0.480, 3.400e-9
0.478, 3.334e-9
0.476, 3.277e-9
0.474, 3.216e-9
0.472, 3.156e-9
0.470, 3.098e-9
0.468, 3.051e-9
0.466, 3.000e-9
0.464, 2.952e-9
0.462, 2.905e-9
0.460, 2.860e-9
0.458, 2.817e-9
0.456, 2.775e-9
0.454, 2.731e-9
0.452, 2.689e-9
0.450, 2.645e-9
0.448, 2.605e-9
0.446, 2.571e-9
0.444, 2.535e-9
0.442, 2.497e-9
0.440, 2.462e-9
0.438, 2.428e-9
0.436, 2.391e-9
0.434, 2.358e-9
0.432, 2.327e-9
0.430, 2.293e-9
0.428, 2.259e-9
0.426, 2.229e-9
0.424, 2.200e-9
0.422, 2.169e-9
0.420, 2.133e-9
0.418, 2.106e-9
0.416, 2.079e-9
0.414, 2.052e-9
0.412, 2.023e-9
0.410, 1.998e-9
0.408, 1.973e-9
0.406, 1.946e-9
0.404, 1.917e-9
0.402, 1.888e-9
0.400, 1.862e-9
0.398, 1.835e-9
0.396, 1.810e-9
0.394, 1.784e-9
0.392, 1.757e-9
0.390, 1.733e-9
0.388, 1.710e-9
0.386, 1.684e-9
0.384, 1.658e-9
0.382, 1.635e-9
0.380, 1.612e-9
0.378, 1.589e-9
0.376, 1.565e-9
0.374, 1.542e-9
0.372, 1.520e-9
0.370, 1.497e-9
0.368, 1.477e-9
0.366, 1.454e-9
0.364, 1.432e-9
0.362, 1.407e-9
0.360, 1.385e-9
0.358, 1.366e-9
0.356, 1.343e-9
0.354, 1.321e-9
0.352, 1.301e-9
0.350, 1.279e-9
0.348, 1.260e-9
0.346, 1.238e-9
0.344, 1.220e-9
0.342, 1.198e-9
0.340, 1.175e-9
0.338, 1.155e-9
0.336, 1.137e-9
0.334, 1.117e-9
0.332, 1.100e-9
0.330, 1.081e-9
0.328, 1.063e-9
0.326, 1.042e-9
0.324, 1.026e-9
0.322, 1.007e-9
0.320, 9.877e-10
0.318, 9.701e-10
0.316, 9.507e-10
0.314, 9.319e-10
0.312, 9.125e-10
0.310, 8.945e-10
0.308, 8.763e-10
0.306, 8.548e-10
0.304, 8.378e-10
0.302, 8.198e-10
0.300, 8.020e-10
0.298, 7.850e-10
0.296, 7.676e-10
0.294, 7.517e-10
0.292, 7.338e-10
0.290, 7.157e-10
0.288, 6.968e-10
0.286, 6.800e-10
0.284, 6.608e-10
0.282, 6.447e-10
0.280, 6.302e-10
0.278, 6.136e-10
0.276, 5.971e-10
0.274, 5.811e-10
0.272, 5.625e-10
0.270, 5.455e-10
0.268, 5.307e-10
0.266, 5.128e-10
0.264, 4.940e-10
0.262, 4.765e-10
0.260, 4.548e-10
0.258, 4.372e-10
0.256, 4.204e-10
0.254, 4.047e-10
0.252, 3.903e-10
0.250, 3.751e-10
0.248, 3.589e-10
0.246, 3.447e-10
0.244, 3.276e-10
0.242, 3.117e-10
0.240, 2.976e-10
0.238, 2.811e-10
0.236, 2.642e-10
0.234, 2.486e-10
0.232, 2.311e-10
0.230, 2.147e-10
0.228, 1.953e-10
0.226, 1.797e-10
0.224, 1.643e-10
0.222, 1.507e-10
0.220, 1.369e-10
0.218, 1.224e-10
0.216, 1.068e-10
0.214, 9.187e-11
0.212, 7.490e-11
0.210, 5.892e-11
0.208, 4.391e-11
0.206, 2.577e-11
0.204, 1.359e-11
0.202, -6.102e-12
0.200, -2.414e-11
0.198, -4.207e-11
0.196, -5.923e-11
0.194, -7.580e-11
0.192, -9.150e-11
0.190, -1.079e-10
0.188, -1.235e-10
0.186, -1.400e-10
0.184, -1.561e-10
0.182, -1.735e-10
0.180, -1.902e-10
0.178, -2.063e-10
0.176, -2.229e-10
0.174, -2.403e-10
0.172, -2.595e-10
0.170, -2.789e-10
0.168, -2.985e-10
0.166, -3.154e-10
0.164, -3.319e-10
0.162, -3.474e-10
0.160, -3.645e-10
0.158, -3.806e-10
0.156, -3.987e-10
0.154, -4.167e-10
0.152, -4.360e-10
0.150, -4.534e-10
0.148, -4.746e-10
0.146, -4.943e-10
0.144, -5.143e-10
0.142, -5.346e-10
0.140, -5.556e-10
0.138, -5.742e-10
0.136, -5.917e-10
0.134, -6.107e-10
0.132, -6.305e-10
0.130, -6.504e-10
0.128, -6.691e-10
0.126, -6.895e-10
0.124, -7.082e-10
0.122, -7.291e-10
0.120, -7.505e-10
0.118, -7.723e-10
0.116, -7.935e-10
0.114, -8.125e-10
0.112, -8.322e-10
0.110, -8.510e-10
0.108, -8.717e-10
0.106, -8.918e-10
0.104, -9.146e-10
0.102, -9.412e-10
0.100, -9.597e-10
0.098, -9.812e-10
0.096, -1.006e-9
0.094, -1.028e-9
0.092, -1.050e-9
0.090, -1.071e-9
0.088, -1.090e-9
0.086, -1.111e-9
0.084, -1.135e-9
0.082, -1.156e-9
0.080, -1.177e-9
0.078, -1.200e-9
0.076, -1.221e-9
0.074, -1.244e-9
0.072, -1.267e-9
0.070, -1.289e-9
0.068, -1.308e-9
0.066, -1.328e-9
0.064, -1.348e-9
0.062, -1.367e-9
0.060, -1.389e-9
0.058, -1.410e-9
0.056, -1.431e-9
0.054, -1.451e-9
0.052, -1.473e-9
0.050, -1.493e-9
0.048, -1.516e-9
0.046, -1.537e-9
0.044, -1.556e-9
0.042, -1.575e-9
0.040, -1.594e-9
0.038, -1.612e-9
0.036, -1.630e-9
0.034, -1.647e-9
0.032, -1.667e-9
0.030, -1.685e-9
0.028, -1.702e-9
0.026, -1.721e-9
0.024, -1.741e-9
0.022, -1.761e-9
0.020, -1.776e-9
0.018, -1.794e-9
0.016, -1.808e-9
0.014, -1.825e-9
0.012, -1.841e-9
0.010, -1.859e-9
0.008, -1.875e-9
0.006, -1.891e-9
0.004, -1.907e-9
0.002, -1.920e-9
-0.000, -1.933e-9
-0.002, -1.947e-9
-0.004, -1.963e-9
-0.006, -1.979e-9
-0.008, -1.994e-9
-0.010, -2.009e-9
-0.012, -2.026e-9
-0.014, -2.038e-9
-0.016, -2.052e-9
-0.018, -2.071e-9
-0.020, -2.095e-9
-0.022, -2.118e-9
-0.024, -2.146e-9
-0.026, -2.169e-9
-0.028, -2.196e-9
-0.030, -2.226e-9
-0.032, -2.259e-9
-0.034, -2.283e-9
-0.036, -2.310e-9
-0.038, -2.349e-9
-0.040, -2.387e-9
-0.042, -2.414e-9
-0.044, -2.448e-9
-0.046, -2.488e-9
-0.048, -2.517e-9
-0.050, -2.557e-9
-0.052, -2.565e-9
-0.054, -2.587e-9
-0.056, -2.573e-9
-0.058, -2.586e-9
-0.060, -2.589e-9
-0.062, -2.575e-9
-0.064, -2.540e-9
-0.066, -2.510e-9
-0.068, -2.511e-9
-0.070, -2.510e-9
-0.072, -2.464e-9
-0.074, -2.464e-9
-0.076, -2.446e-9
-0.078, -2.438e-9
-0.080, -2.422e-9
-0.082, -2.420e-9
-0.084, -2.410e-9
-0.086, -2.405e-9
-0.088, -2.401e-9
-0.090, -2.398e-9
-0.092, -2.410e-9
-0.094, -2.402e-9
-0.096, -2.404e-9
-0.098, -2.404e-9
-0.100, -2.403e-9
-0.102, -2.406e-9
-0.104, -2.409e-9
-0.106, -2.411e-9
-0.108, -2.416e-9
-0.110, -2.426e-9
-0.112, -2.425e-9
-0.114, -2.443e-9
-0.116, -2.425e-9
-0.118, -2.434e-9
-0.120, -2.457e-9
-0.122, -2.453e-9
-0.124, -2.452e-9
-0.126, -2.459e-9
-0.128, -2.457e-9
-0.130, -2.464e-9
-0.132, -2.459e-9
-0.134, -2.464e-9
-0.136, -2.472e-9
-0.138, -2.477e-9
-0.140, -2.490e-9
-0.142, -2.490e-9
-0.144, -2.496e-9
-0.146, -2.511e-9
-0.148, -2.504e-9
-0.150, -2.509e-9
-0.152, -2.513e-9
-0.154, -2.515e-9
-0.156, -2.524e-9
-0.158, -2.529e-9
-0.160, -2.562e-9
-0.162, -2.543e-9
-0.164, -2.543e-9
-0.166, -2.546e-9
-0.168, -2.549e-9
-0.170, -2.553e-9
-0.172, -2.561e-9
-0.174, -2.564e-9
-0.176, -2.573e-9
-0.178, -2.574e-9
-0.180, -2.581e-9
-0.182, -2.587e-9
-0.184, -2.592e-9
-0.186, -2.600e-9
-0.188, -2.606e-9
-0.190, -2.610e-9
-0.192, -2.616e-9
-0.194, -2.621e-9
-0.196, -2.625e-9
-0.198, -2.632e-9
-0.200, -2.642e-9
-0.202, -2.641e-9
-0.204, -2.649e-9
-0.206, -2.650e-9
-0.208, -2.658e-9
-0.210, -2.662e-9
-0.212, -2.669e-9
-0.214, -2.677e-9
-0.216, -2.682e-9
-0.218, -2.688e-9
-0.220, -2.694e-9
-0.222, -2.699e-9
-0.224, -2.707e-9
-0.226, -2.715e-9
-0.228, -2.720e-9
-0.230, -2.724e-9
-0.232, -2.730e-9
-0.234, -2.735e-9
-0.236, -2.742e-9
-0.238, -2.748e-9
-0.240, -2.753e-9
-0.242, -2.760e-9
-0.244, -2.763e-9
-0.246, -2.770e-9
-0.248, -2.776e-9
-0.250, -2.781e-9
-0.252, -2.785e-9
-0.254, -2.791e-9
-0.256, -2.795e-9
-0.258, -2.801e-9
-0.260, -2.807e-9
-0.262, -2.812e-9
-0.264, -2.819e-9
-0.266, -2.821e-9
-0.268, -2.827e-9
-0.270, -2.832e-9
-0.272, -2.840e-9
-0.274, -2.843e-9
-0.276, -2.850e-9
-0.278, -2.854e-9
-0.280, -2.859e-9
-0.282, -2.863e-9
-0.284, -2.868e-9
-0.286, -2.872e-9
-0.288, -2.877e-9
-0.290, -2.881e-9
-0.292, -2.884e-9
-0.294, -2.888e-9
-0.296, -2.892e-9
-0.298, -2.893e-9
-0.300, -2.900e-9
-0.302, -2.904e-9
-0.304, -2.907e-9
-0.306, -2.909e-9
-0.308, -2.921e-9
-0.310, -2.922e-9
-0.312, -2.925e-9
-0.314, -2.927e-9
-0.316, -2.932e-9
-0.318, -2.935e-9
-0.320, -2.938e-9
-0.322, -2.942e-9
-0.324, -2.946e-9
-0.326, -2.950e-9
-0.328, -2.953e-9
-0.330, -2.955e-9
-0.332, -2.960e-9
-0.334, -2.964e-9
-0.336, -2.966e-9
-0.338, -2.972e-9
-0.340, -2.973e-9
-0.342, -2.977e-9
-0.344, -2.981e-9
-0.346, -2.984e-9
-0.348, -2.992e-9
-0.350, -2.994e-9
-0.352, -2.996e-9
-0.354, -2.995e-9
-0.356, -2.998e-9
-0.358, -3.001e-9
-0.360, -3.004e-9
-0.362, -3.008e-9
-0.364, -3.012e-9
-0.366, -3.015e-9
-0.368, -3.018e-9
-0.370, -3.019e-9
-0.372, -3.023e-9
-0.374, -3.026e-9
-0.376, -3.030e-9
-0.378, -3.033e-9
-0.380, -3.035e-9
-0.382, -3.038e-9
-0.384, -3.041e-9
-0.386, -3.044e-9
-0.388, -3.048e-9
-0.390, -3.052e-9
-0.392, -3.055e-9
-0.394, -3.057e-9
-0.396, -3.061e-9
-0.398, -3.064e-9
-0.400, -3.067e-9
-0.402, -3.071e-9
-0.404, -3.075e-9
-0.406, -3.079e-9
-0.408, -3.083e-9
-0.410, -3.086e-9
-0.412, -3.092e-9
-0.414, -3.096e-9
-0.416, -3.099e-9
-0.418, -3.103e-9
-0.420, -3.107e-9
-0.422, -3.110e-9
-0.424, -3.114e-9
-0.426, -3.117e-9
-0.428, -3.120e-9
-0.430, -3.124e-9
-0.432, -3.128e-9
-0.434, -3.132e-9
-0.436, -3.135e-9
-0.438, -3.137e-9
-0.440, -3.140e-9
-0.442, -3.146e-9
-0.444, -3.150e-9
-0.446, -3.154e-9
-0.448, -3.157e-9
-0.450, -3.161e-9
-0.452, -3.167e-9
-0.454, -3.171e-9
-0.456, -3.177e-9
-0.458, -3.181e-9
-0.460, -3.186e-9
-0.462, -3.189e-9
-0.464, -3.195e-9
-0.466, -3.200e-9
-0.468, -3.207e-9
-0.470, -3.211e-9
-0.472, -3.216e-9
-0.474, -3.220e-9
-0.476, -3.225e-9
-0.478, -3.229e-9
-0.480, -3.234e-9
-0.482, -3.238e-9
-0.484, -3.243e-9
-0.486, -3.245e-9
-0.488, -3.251e-9
-0.490, -3.255e-9
-0.492, -3.260e-9
-0.494, -3.265e-9
-0.496, -3.269e-9
-0.498, -3.273e-9
-0.499, -3.275e-9