File: Fig 4/Fig 3c CV surface dark/CV_surface_dark_3.txt
Nov. 20, 2024   15:50:03
Cyclic Voltammetry
File: +12 2319-1 fto cv_cells_dark_surface_3.bin
Data Source:  Experiment
Instrument Model:  CHI920C
Ref. Electrode:
Header:
Note:

Init E (V) = -0.5
High E (V) = 0.5
Low E (V) = -0.5
Init P/N = P
Scan Rate (V/s) = 0.05
Segment = 2
Sample Interval (V) = 0.001
Quiet Time (sec) = 10
Sensitivity (A/V) = 1e-7

Results:

Channel 1:
Segment 1:
Ep = 0.139V
ip = 1.002e-9A
Ah = 4.891e-10C

Segment 2:

Potential/V, Current/A

-0.500, -1.771e-9
-0.498, -1.650e-9
-0.496, -1.587e-9
-0.494, -1.539e-9
-0.492, -1.496e-9
-0.490, -1.455e-9
-0.488, -1.423e-9
-0.486, -1.395e-9
-0.484, -1.367e-9
-0.482, -1.342e-9
-0.480, -1.320e-9
-0.478, -1.299e-9
-0.476, -1.276e-9
-0.474, -1.256e-9
-0.472, -1.233e-9
-0.470, -1.210e-9
-0.468, -1.191e-9
-0.466, -1.172e-9
-0.464, -1.154e-9
-0.462, -1.136e-9
-0.460, -1.119e-9
-0.458, -1.104e-9
-0.456, -1.088e-9
-0.454, -1.072e-9
-0.452, -1.057e-9
-0.450, -1.040e-9
-0.448, -1.026e-9
-0.446, -1.009e-9
-0.444, -9.915e-10
-0.442, -9.740e-10
-0.440, -9.578e-10
-0.438, -9.442e-10
-0.436, -9.286e-10
-0.434, -9.150e-10
-0.432, -9.008e-10
-0.430, -8.876e-10
-0.428, -8.726e-10
-0.426, -8.597e-10
-0.424, -8.460e-10
-0.422, -8.335e-10
-0.420, -8.205e-10
-0.418, -8.092e-10
-0.416, -7.969e-10
-0.414, -7.834e-10
-0.412, -7.701e-10
-0.410, -7.545e-10
-0.408, -7.398e-10
-0.406, -7.260e-10
-0.404, -7.133e-10
-0.402, -6.995e-10
-0.400, -6.874e-10
-0.398, -6.746e-10
-0.396, -6.635e-10
-0.394, -6.497e-10
-0.392, -6.378e-10
-0.390, -6.245e-10
-0.388, -6.127e-10
-0.386, -6.005e-10
-0.384, -5.882e-10
-0.382, -5.767e-10
-0.380, -5.659e-10
-0.378, -5.529e-10
-0.376, -5.397e-10
-0.374, -5.297e-10
-0.372, -5.126e-10
-0.370, -4.982e-10
-0.368, -4.863e-10
-0.366, -4.732e-10
-0.364, -4.607e-10
-0.362, -4.484e-10
-0.360, -4.378e-10
-0.358, -4.252e-10
-0.356, -4.138e-10
-0.354, -4.014e-10
-0.352, -3.880e-10
-0.350, -3.766e-10
-0.348, -3.668e-10
-0.346, -3.549e-10
-0.344, -3.439e-10
-0.342, -3.342e-10
-0.340, -3.224e-10
-0.338, -3.109e-10
-0.336, -3.002e-10
-0.334, -2.887e-10
-0.332, -2.752e-10
-0.330, -2.588e-10
-0.328, -2.481e-10
-0.326, -2.354e-10
-0.324, -2.219e-10
-0.322, -2.078e-10
-0.320, -1.974e-10
-0.318, -1.850e-10
-0.316, -1.748e-10
-0.314, -1.619e-10
-0.312, -1.515e-10
-0.310, -1.416e-10
-0.308, -1.281e-10
-0.306, -1.132e-10
-0.304, -1.040e-10
-0.302, -9.257e-11
-0.300, -8.175e-11
-0.298, -7.005e-11
-0.296, -5.845e-11
-0.294, -4.646e-11
-0.292, -3.203e-11
-0.290, -2.014e-11
-0.288, -4.738e-12
-0.286, 7.935e-12
-0.284, 1.993e-11
-0.282, 3.192e-11
-0.280, 4.196e-11
-0.278, 5.346e-11
-0.276, 6.642e-11
-0.274, 7.695e-11
-0.272, 8.777e-11
-0.270, 1.011e-10
-0.268, 1.133e-10
-0.266, 1.235e-10
-0.264, 1.351e-10
-0.262, 1.464e-10
-0.260, 1.564e-10
-0.258, 1.676e-10
-0.256, 1.775e-10
-0.254, 1.900e-10
-0.252, 2.024e-10
-0.250, 2.183e-10
-0.248, 2.306e-10
-0.246, 2.419e-10
-0.244, 2.561e-10
-0.242, 2.667e-10
-0.240, 2.787e-10
-0.238, 2.905e-10
-0.236, 3.019e-10
-0.234, 3.140e-10
-0.232, 3.268e-10
-0.230, 3.394e-10
-0.228, 3.523e-10
-0.226, 3.637e-10
-0.224, 3.739e-10
-0.222, 3.850e-10
-0.220, 3.959e-10
-0.218, 4.070e-10
-0.216, 4.193e-10
-0.214, 4.311e-10
-0.212, 4.437e-10
-0.210, 4.579e-10
-0.208, 4.728e-10
-0.206, 4.877e-10
-0.204, 4.992e-10
-0.202, 5.128e-10
-0.200, 5.243e-10
-0.198, 5.368e-10
-0.196, 5.513e-10
-0.194, 5.627e-10
-0.192, 5.749e-10
-0.190, 5.865e-10
-0.188, 5.988e-10
-0.186, 6.111e-10
-0.184, 6.240e-10
-0.182, 6.349e-10
-0.180, 6.454e-10
-0.178, 6.573e-10
-0.176, 6.687e-10
-0.174, 6.797e-10
-0.172, 6.950e-10
-0.170, 7.065e-10
-0.168, 7.181e-10
-0.166, 7.312e-10
-0.164, 7.436e-10
-0.162, 7.546e-10
-0.160, 7.672e-10
-0.158, 7.794e-10
-0.156, 7.897e-10
-0.154, 8.009e-10
-0.152, 8.129e-10
-0.150, 8.239e-10
-0.148, 8.381e-10
-0.146, 8.505e-10
-0.144, 8.614e-10
-0.142, 8.724e-10
-0.140, 8.847e-10
-0.138, 8.973e-10
-0.136, 9.086e-10
-0.134, 9.223e-10
-0.132, 9.336e-10
-0.130, 9.450e-10
-0.128, 9.576e-10
-0.126, 9.686e-10
-0.124, 9.794e-10
-0.122, 9.930e-10
-0.120, 1.003e-9
-0.118, 1.014e-9
-0.116, 1.025e-9
-0.114, 1.037e-9
-0.112, 1.048e-9
-0.110, 1.058e-9
-0.108, 1.070e-9
-0.106, 1.083e-9
-0.104, 1.094e-9
-0.102, 1.108e-9
-0.100, 1.118e-9
-0.098, 1.127e-9
-0.096, 1.138e-9
-0.094, 1.147e-9
-0.092, 1.159e-9
-0.090, 1.171e-9
-0.088, 1.183e-9
-0.086, 1.195e-9
-0.084, 1.207e-9
-0.082, 1.220e-9
-0.080, 1.230e-9
-0.078, 1.242e-9
-0.076, 1.251e-9
-0.074, 1.262e-9
-0.072, 1.274e-9
-0.070, 1.285e-9
-0.068, 1.297e-9
-0.066, 1.309e-9
-0.064, 1.319e-9
-0.062, 1.330e-9
-0.060, 1.341e-9
-0.058, 1.353e-9
-0.056, 1.363e-9
-0.054, 1.375e-9
-0.052, 1.387e-9
-0.050, 1.397e-9
-0.048, 1.409e-9
-0.046, 1.421e-9
-0.044, 1.434e-9
-0.042, 1.445e-9
-0.040, 1.457e-9
-0.038, 1.469e-9
-0.036, 1.481e-9
-0.034, 1.491e-9
-0.032, 1.502e-9
-0.030, 1.513e-9
-0.028, 1.524e-9
-0.026, 1.536e-9
-0.024, 1.548e-9
-0.022, 1.557e-9
-0.020, 1.569e-9
-0.018, 1.581e-9
-0.016, 1.591e-9
-0.014, 1.603e-9
-0.012, 1.615e-9
-0.010, 1.626e-9
-0.008, 1.638e-9
-0.006, 1.650e-9
-0.004, 1.664e-9
-0.002, 1.676e-9
0.000, 1.685e-9
0.002, 1.697e-9
0.004, 1.712e-9
0.006, 1.725e-9
0.008, 1.737e-9
0.010, 1.746e-9
0.012, 1.758e-9
0.014, 1.771e-9
0.016, 1.783e-9
0.018, 1.796e-9
0.020, 1.808e-9
0.022, 1.823e-9
0.024, 1.835e-9
0.026, 1.847e-9
0.028, 1.858e-9
0.030, 1.869e-9
0.032, 1.882e-9
0.034, 1.897e-9
0.036, 1.910e-9
0.038, 1.925e-9
0.040, 1.938e-9
0.042, 1.951e-9
0.044, 1.964e-9
0.046, 1.976e-9
0.048, 1.987e-9
0.050, 1.997e-9
0.052, 2.011e-9
0.054, 2.024e-9
0.056, 2.037e-9
0.058, 2.051e-9
0.060, 2.064e-9
0.062, 2.076e-9
0.064, 2.088e-9
0.066, 2.099e-9
0.068, 2.111e-9
0.070, 2.124e-9
0.072, 2.137e-9
0.074, 2.151e-9
0.076, 2.164e-9
0.078, 2.181e-9
0.080, 2.194e-9
0.082, 2.209e-9
0.084, 2.222e-9
0.086, 2.236e-9
0.088, 2.248e-9
0.090, 2.262e-9
0.092, 2.279e-9
0.094, 2.293e-9
0.096, 2.307e-9
0.098, 2.324e-9
0.100, 2.338e-9
0.102, 2.358e-9
0.104, 2.377e-9
0.106, 2.397e-9
0.108, 2.421e-9
0.110, 2.450e-9
0.112, 2.486e-9
0.114, 2.529e-9
0.116, 2.593e-9
0.118, 2.668e-9
0.120, 2.783e-9
0.122, 2.901e-9
0.124, 3.024e-9
0.126, 3.158e-9
0.128, 3.230e-9
0.130, 3.294e-9
0.132, 3.337e-9
0.134, 3.366e-9
0.136, 3.415e-9
0.138, 3.451e-9
0.140, 3.441e-9
0.142, 3.402e-9
0.144, 3.345e-9
0.146, 3.276e-9
0.148, 3.188e-9
0.150, 3.097e-9
0.152, 3.026e-9
0.154, 2.956e-9
0.156, 2.891e-9
0.158, 2.844e-9
0.160, 2.806e-9
0.162, 2.779e-9
0.164, 2.760e-9
0.166, 2.745e-9
0.168, 2.731e-9
0.170, 2.725e-9
0.172, 2.721e-9
0.174, 2.720e-9
0.176, 2.718e-9
0.178, 2.720e-9
0.180, 2.723e-9
0.182, 2.726e-9
0.184, 2.732e-9
0.186, 2.735e-9
0.188, 2.740e-9
0.190, 2.744e-9
0.192, 2.750e-9
0.194, 2.754e-9
0.196, 2.762e-9
0.198, 2.767e-9
0.200, 2.773e-9
0.202, 2.777e-9
0.204, 2.783e-9
0.206, 2.786e-9
0.208, 2.792e-9
0.210, 2.799e-9
0.212, 2.807e-9
0.214, 2.813e-9
0.216, 2.818e-9
0.218, 2.823e-9
0.220, 2.829e-9
0.222, 2.833e-9
0.224, 2.841e-9
0.226, 2.846e-9
0.228, 2.850e-9
0.230, 2.857e-9
0.232, 2.863e-9
0.234, 2.870e-9
0.236, 2.874e-9
0.238, 2.881e-9
0.240, 2.886e-9
0.242, 2.892e-9
0.244, 2.899e-9
0.246, 2.904e-9
0.248, 2.912e-9
0.250, 2.918e-9
0.252, 2.922e-9
0.254, 2.930e-9
0.256, 2.936e-9
0.258, 2.941e-9
0.260, 2.946e-9
0.262, 2.951e-9
0.264, 2.960e-9
0.266, 2.967e-9
0.268, 2.972e-9
0.270, 2.979e-9
0.272, 2.987e-9
0.274, 2.994e-9
0.276, 3.000e-9
0.278, 3.006e-9
0.280, 3.012e-9
0.282, 3.018e-9
0.284, 3.026e-9
0.286, 3.031e-9
0.288, 3.038e-9
0.290, 3.046e-9
0.292, 3.050e-9
0.294, 3.058e-9
0.296, 3.063e-9
0.298, 3.070e-9
0.300, 3.076e-9
0.302, 3.082e-9
0.304, 3.089e-9
0.306, 3.096e-9
0.308, 3.107e-9
0.310, 3.109e-9
0.312, 3.119e-9
0.314, 3.126e-9
0.316, 3.138e-9
0.318, 3.146e-9
0.320, 3.154e-9
0.322, 3.163e-9
0.324, 3.172e-9
0.326, 3.181e-9
0.328, 3.190e-9
0.330, 3.195e-9
0.332, 3.204e-9
0.334, 3.213e-9
0.336, 3.222e-9
0.338, 3.229e-9
0.340, 3.237e-9
0.342, 3.247e-9
0.344, 3.256e-9
0.346, 3.263e-9
0.348, 3.271e-9
0.350, 3.279e-9
0.352, 3.290e-9
0.354, 3.298e-9
0.356, 3.306e-9
0.358, 3.315e-9
0.360, 3.323e-9
0.362, 3.333e-9
0.364, 3.341e-9
0.366, 3.350e-9
0.368, 3.360e-9
0.370, 3.369e-9
0.372, 3.380e-9
0.374, 3.389e-9
0.376, 3.400e-9
0.378, 3.411e-9
0.380, 3.421e-9
0.382, 3.431e-9
0.384, 3.439e-9
0.386, 3.449e-9
0.388, 3.460e-9
0.390, 3.470e-9
0.392, 3.480e-9
0.394, 3.491e-9
0.396, 3.499e-9
0.398, 3.509e-9
0.400, 3.520e-9
0.402, 3.531e-9
0.404, 3.541e-9
0.406, 3.553e-9
0.408, 3.561e-9
0.410, 3.565e-9
0.412, 3.578e-9
0.414, 3.589e-9
0.416, 3.599e-9
0.418, 3.611e-9
0.420, 3.623e-9
0.422, 3.636e-9
0.424, 3.647e-9
0.426, 3.659e-9
0.428, 3.671e-9
0.430, 3.686e-9
0.432, 3.695e-9
0.434, 3.708e-9
0.436, 3.722e-9
0.438, 3.735e-9
0.440, 3.745e-9
0.442, 3.759e-9
0.444, 3.771e-9
0.446, 3.782e-9
0.448, 3.793e-9
0.450, 3.806e-9
0.452, 3.815e-9
0.454, 3.826e-9
0.456, 3.839e-9
0.458, 3.853e-9
0.460, 3.865e-9
0.462, 3.876e-9
0.464, 3.889e-9
0.466, 3.903e-9
0.468, 3.915e-9
0.470, 3.928e-9
0.472, 3.947e-9
0.474, 3.951e-9
0.476, 3.965e-9
0.478, 3.980e-9
0.480, 3.992e-9
0.482, 4.005e-9
0.484, 4.019e-9
0.486, 4.032e-9
0.488, 4.043e-9
0.490, 4.056e-9
0.492, 4.064e-9
0.494, 4.080e-9
0.496, 4.095e-9
0.498, 4.113e-9
0.500, 4.093e-9
0.498, 3.840e-9
0.496, 3.693e-9
0.494, 3.568e-9
0.492, 3.468e-9
0.490, 3.372e-9
0.488, 3.291e-9
0.486, 3.214e-9
0.484, 3.130e-9
0.482, 3.064e-9
0.480, 3.000e-9
0.478, 2.940e-9
0.476, 2.881e-9
0.474, 2.824e-9
0.472, 2.772e-9
0.470, 2.720e-9
0.468, 2.665e-9
0.466, 2.613e-9
0.464, 2.570e-9
0.462, 2.526e-9
0.460, 2.482e-9
0.458, 2.440e-9
0.456, 2.399e-9
0.454, 2.357e-9
0.452, 2.317e-9
0.450, 2.279e-9
0.448, 2.243e-9
0.446, 2.208e-9
0.444, 2.172e-9
0.442, 2.135e-9
0.440, 2.102e-9
0.438, 2.072e-9
0.436, 2.042e-9
0.434, 2.008e-9
0.432, 1.979e-9
0.430, 1.948e-9
0.428, 1.914e-9
0.426, 1.885e-9
0.424, 1.857e-9
0.422, 1.828e-9
0.420, 1.799e-9
0.418, 1.771e-9
0.416, 1.744e-9
0.414, 1.717e-9
0.412, 1.690e-9
0.410, 1.662e-9
0.408, 1.638e-9
0.406, 1.612e-9
0.404, 1.588e-9
0.402, 1.562e-9
0.400, 1.538e-9
0.398, 1.513e-9
0.396, 1.491e-9
0.394, 1.468e-9
0.392, 1.444e-9
0.390, 1.419e-9
0.388, 1.395e-9
0.386, 1.370e-9
0.384, 1.348e-9
0.382, 1.326e-9
0.380, 1.303e-9
0.378, 1.281e-9
0.376, 1.261e-9
0.374, 1.240e-9
0.372, 1.218e-9
0.370, 1.196e-9
0.368, 1.174e-9
0.366, 1.151e-9
0.364, 1.133e-9
0.362, 1.114e-9
0.360, 1.095e-9
0.358, 1.076e-9
0.356, 1.056e-9
0.354, 1.036e-9
0.352, 1.017e-9
0.350, 9.981e-10
0.348, 9.796e-10
0.346, 9.609e-10
0.344, 9.402e-10
0.342, 9.196e-10
0.340, 8.987e-10
0.338, 8.811e-10
0.336, 8.611e-10
0.334, 8.441e-10
0.332, 8.247e-10
0.330, 8.055e-10
0.328, 7.886e-10
0.326, 7.706e-10
0.324, 7.533e-10
0.322, 7.362e-10
0.320, 7.181e-10
0.318, 6.980e-10
0.316, 6.791e-10
0.314, 6.637e-10
0.312, 6.467e-10
0.310, 6.313e-10
0.308, 6.141e-10
0.306, 5.933e-10
0.304, 5.780e-10
0.302, 5.609e-10
0.300, 5.448e-10
0.298, 5.283e-10
0.296, 5.112e-10
0.294, 4.937e-10
0.292, 4.726e-10
0.290, 4.535e-10
0.288, 4.348e-10
0.286, 4.177e-10
0.284, 4.033e-10
0.282, 3.894e-10
0.280, 3.731e-10
0.278, 3.590e-10
0.276, 3.421e-10
0.274, 3.273e-10
0.272, 3.132e-10
0.270, 2.976e-10
0.268, 2.820e-10
0.266, 2.656e-10
0.264, 2.511e-10
0.262, 2.346e-10
0.260, 2.182e-10
0.258, 2.009e-10
0.256, 1.841e-10
0.254, 1.699e-10
0.252, 1.573e-10
0.250, 1.441e-10
0.248, 1.297e-10
0.246, 1.159e-10
0.244, 1.010e-10
0.242, 8.660e-11
0.240, 7.130e-11
0.238, 5.687e-11
0.236, 4.088e-11
0.234, 2.704e-11
0.232, 1.232e-11
0.230, -1.131e-12
0.228, -1.809e-11
0.226, -3.622e-11
0.224, -5.250e-11
0.222, -6.800e-11
0.220, -8.282e-11
0.218, -9.530e-11
0.216, -1.085e-10
0.214, -1.227e-10
0.212, -1.367e-10
0.210, -1.513e-10
0.208, -1.663e-10
0.206, -1.815e-10
0.204, -1.917e-10
0.202, -2.091e-10
0.200, -2.237e-10
0.198, -2.380e-10
0.196, -2.560e-10
0.194, -2.729e-10
0.192, -2.888e-10
0.190, -3.030e-10
0.188, -3.169e-10
0.186, -3.309e-10
0.184, -3.443e-10
0.182, -3.575e-10
0.180, -3.719e-10
0.178, -3.868e-10
0.176, -4.025e-10
0.174, -4.161e-10
0.172, -4.325e-10
0.170, -4.486e-10
0.168, -4.623e-10
0.166, -4.779e-10
0.164, -4.949e-10
0.162, -5.116e-10
0.160, -5.306e-10
0.158, -5.475e-10
0.156, -5.623e-10
0.154, -5.764e-10
0.152, -5.926e-10
0.150, -6.072e-10
0.148, -6.235e-10
0.146, -6.390e-10
0.144, -6.555e-10
0.142, -6.724e-10
0.140, -6.877e-10
0.138, -7.026e-10
0.136, -7.195e-10
0.134, -7.370e-10
0.132, -7.563e-10
0.130, -7.752e-10
0.128, -7.920e-10
0.126, -8.076e-10
0.124, -8.228e-10
0.122, -8.396e-10
0.120, -8.559e-10
0.118, -8.719e-10
0.116, -8.922e-10
0.114, -9.082e-10
0.112, -9.255e-10
0.110, -9.439e-10
0.108, -9.610e-10
0.106, -9.807e-10
0.104, -1.000e-9
0.102, -1.027e-9
0.100, -1.045e-9
0.098, -1.062e-9
0.096, -1.078e-9
0.094, -1.097e-9
0.092, -1.115e-9
0.090, -1.134e-9
0.088, -1.152e-9
0.086, -1.171e-9
0.084, -1.192e-9
0.082, -1.212e-9
0.080, -1.233e-9
0.078, -1.255e-9
0.076, -1.275e-9
0.074, -1.294e-9
0.072, -1.313e-9
0.070, -1.330e-9
0.068, -1.350e-9
0.066, -1.370e-9
0.064, -1.390e-9
0.062, -1.409e-9
0.060, -1.428e-9
0.058, -1.447e-9
0.056, -1.468e-9
0.054, -1.490e-9
0.052, -1.514e-9
0.050, -1.531e-9
0.048, -1.551e-9
0.046, -1.571e-9
0.044, -1.588e-9
0.042, -1.607e-9
0.040, -1.626e-9
0.038, -1.643e-9
0.036, -1.661e-9
0.034, -1.680e-9
0.032, -1.698e-9
0.030, -1.717e-9
0.028, -1.737e-9
0.026, -1.756e-9
0.024, -1.775e-9
0.022, -1.791e-9
0.020, -1.808e-9
0.018, -1.825e-9
0.016, -1.843e-9
0.014, -1.862e-9
0.012, -1.881e-9
0.010, -1.898e-9
0.008, -1.914e-9
0.006, -1.931e-9
0.004, -1.947e-9
0.002, -1.964e-9
-0.000, -1.977e-9
-0.002, -1.996e-9
-0.004, -2.011e-9
-0.006, -2.029e-9
-0.008, -2.044e-9
-0.010, -2.059e-9
-0.012, -2.075e-9
-0.014, -2.092e-9
-0.016, -2.105e-9
-0.018, -2.120e-9
-0.020, -2.134e-9
-0.022, -2.149e-9
-0.024, -2.163e-9
-0.026, -2.178e-9
-0.028, -2.196e-9
-0.030, -2.212e-9
-0.032, -2.233e-9
-0.034, -2.254e-9
-0.036, -2.273e-9
-0.038, -2.296e-9
-0.040, -2.318e-9
-0.042, -2.343e-9
-0.044, -2.370e-9
-0.046, -2.398e-9
-0.048, -2.421e-9
-0.050, -2.451e-9
-0.052, -2.483e-9
-0.054, -2.511e-9
-0.056, -2.537e-9
-0.058, -2.544e-9
-0.060, -2.573e-9
-0.062, -2.591e-9
-0.064, -2.585e-9
-0.066, -2.597e-9
-0.068, -2.577e-9
-0.070, -2.574e-9
-0.072, -2.573e-9
-0.074, -2.551e-9
-0.076, -2.534e-9
-0.078, -2.547e-9
-0.080, -2.550e-9
-0.082, -2.532e-9
-0.084, -2.527e-9
-0.086, -2.546e-9
-0.088, -2.523e-9
-0.090, -2.518e-9
-0.092, -2.521e-9
-0.094, -2.538e-9
-0.096, -2.551e-9
-0.098, -2.556e-9
-0.100, -2.545e-9
-0.102, -2.554e-9
-0.104, -2.574e-9
-0.106, -2.578e-9
-0.108, -2.580e-9
-0.110, -2.586e-9
-0.112, -2.594e-9
-0.114, -2.596e-9
-0.116, -2.605e-9
-0.118, -2.610e-9
-0.120, -2.618e-9
-0.122, -2.627e-9
-0.124, -2.632e-9
-0.126, -2.635e-9
-0.128, -2.641e-9
-0.130, -2.646e-9
-0.132, -2.650e-9
-0.134, -2.660e-9
-0.136, -2.667e-9
-0.138, -2.671e-9
-0.140, -2.680e-9
-0.142, -2.684e-9
-0.144, -2.689e-9
-0.146, -2.698e-9
-0.148, -2.704e-9
-0.150, -2.713e-9
-0.152, -2.719e-9
-0.154, -2.726e-9
-0.156, -2.731e-9
-0.158, -2.738e-9
-0.160, -2.746e-9
-0.162, -2.750e-9
-0.164, -2.758e-9
-0.166, -2.764e-9
-0.168, -2.774e-9
-0.170, -2.772e-9
-0.172, -2.779e-9
-0.174, -2.785e-9
-0.176, -2.791e-9
-0.178, -2.799e-9
-0.180, -2.802e-9
-0.182, -2.810e-9
-0.184, -2.816e-9
-0.186, -2.822e-9
-0.188, -2.828e-9
-0.190, -2.835e-9
-0.192, -2.842e-9
-0.194, -2.848e-9
-0.196, -2.854e-9
-0.198, -2.859e-9
-0.200, -2.866e-9
-0.202, -2.873e-9
-0.204, -2.880e-9
-0.206, -2.886e-9
-0.208, -2.891e-9
-0.210, -2.896e-9
-0.212, -2.903e-9
-0.214, -2.908e-9
-0.216, -2.913e-9
-0.218, -2.921e-9
-0.220, -2.926e-9
-0.222, -2.934e-9
-0.224, -2.939e-9
-0.226, -2.945e-9
-0.228, -2.952e-9
-0.230, -2.958e-9
-0.232, -2.964e-9
-0.234, -2.972e-9
-0.236, -2.977e-9
-0.238, -2.983e-9
-0.240, -2.990e-9
-0.242, -2.995e-9
-0.244, -3.002e-9
-0.246, -3.007e-9
-0.248, -3.011e-9
-0.250, -3.016e-9
-0.252, -3.023e-9
-0.254, -3.028e-9
-0.256, -3.032e-9
-0.258, -3.039e-9
-0.260, -3.045e-9
-0.262, -3.052e-9
-0.264, -3.057e-9
-0.266, -3.062e-9
-0.268, -3.069e-9
-0.270, -3.072e-9
-0.272, -3.078e-9
-0.274, -3.085e-9
-0.276, -3.090e-9
-0.278, -3.097e-9
-0.280, -3.102e-9
-0.282, -3.105e-9
-0.284, -3.112e-9
-0.286, -3.115e-9
-0.288, -3.120e-9
-0.290, -3.124e-9
-0.292, -3.129e-9
-0.294, -3.136e-9
-0.296, -3.139e-9
-0.298, -3.144e-9
-0.300, -3.150e-9
-0.302, -3.155e-9
-0.304, -3.158e-9
-0.306, -3.164e-9
-0.308, -3.173e-9
-0.310, -3.175e-9
-0.312, -3.179e-9
-0.314, -3.184e-9
-0.316, -3.188e-9
-0.318, -3.192e-9
-0.320, -3.196e-9
-0.322, -3.200e-9
-0.324, -3.204e-9
-0.326, -3.210e-9
-0.328, -3.216e-9
-0.330, -3.219e-9
-0.332, -3.223e-9
-0.334, -3.225e-9
-0.336, -3.231e-9
-0.338, -3.235e-9
-0.340, -3.238e-9
-0.342, -3.242e-9
-0.344, -3.245e-9
-0.346, -3.248e-9
-0.348, -3.253e-9
-0.350, -3.255e-9
-0.352, -3.260e-9
-0.354, -3.262e-9
-0.356, -3.266e-9
-0.358, -3.269e-9
-0.360, -3.273e-9
-0.362, -3.275e-9
-0.364, -3.281e-9
-0.366, -3.285e-9
-0.368, -3.287e-9
-0.370, -3.289e-9
-0.372, -3.292e-9
-0.374, -3.297e-9
-0.376, -3.300e-9
-0.378, -3.305e-9
-0.380, -3.309e-9
-0.382, -3.312e-9
-0.384, -3.316e-9
-0.386, -3.320e-9
-0.388, -3.324e-9
-0.390, -3.327e-9
-0.392, -3.330e-9
-0.394, -3.334e-9
-0.396, -3.337e-9
-0.398, -3.342e-9
-0.400, -3.347e-9
-0.402, -3.349e-9
-0.404, -3.353e-9
-0.406, -3.356e-9
-0.408, -3.359e-9
-0.410, -3.362e-9
-0.412, -3.368e-9
-0.414, -3.369e-9
-0.416, -3.373e-9
-0.418, -3.377e-9
-0.420, -3.379e-9
-0.422, -3.385e-9
-0.424, -3.388e-9
-0.426, -3.392e-9
-0.428, -3.397e-9
-0.430, -3.399e-9
-0.432, -3.402e-9
-0.434, -3.406e-9
-0.436, -3.410e-9
-0.438, -3.415e-9
-0.440, -3.419e-9
-0.442, -3.422e-9
-0.444, -3.428e-9
-0.446, -3.432e-9
-0.448, -3.436e-9
-0.450, -3.440e-9
-0.452, -3.445e-9
-0.454, -3.451e-9
-0.456, -3.456e-9
-0.458, -3.459e-9
-0.460, -3.462e-9
-0.462, -3.468e-9
-0.464, -3.471e-9
-0.466, -3.475e-9
-0.468, -3.479e-9
-0.470, -3.484e-9
-0.472, -3.488e-9
-0.474, -3.490e-9
-0.476, -3.495e-9
-0.478, -3.500e-9
-0.480, -3.504e-9
-0.482, -3.508e-9
-0.484, -3.512e-9
-0.486, -3.518e-9
-0.488, -3.521e-9
-0.490, -3.528e-9
-0.492, -3.533e-9
-0.494, -3.537e-9
-0.496, -3.543e-9
-0.498, -3.547e-9
-0.499, -3.549e-9