File: Fig 4/Fig 3c CV surface dark/CV_surface_dark_4.txt
Nov. 20, 2024   15:51:10
Cyclic Voltammetry
File: +12 2319-1 fto cv_cells_dark_surface_4.bin
Data Source:  Experiment
Instrument Model:  CHI920C
Ref. Electrode:
Header:
Note:

Init E (V) = -0.5
High E (V) = 0.5
Low E (V) = -0.5
Init P/N = P
Scan Rate (V/s) = 0.05
Segment = 2
Sample Interval (V) = 0.001
Quiet Time (sec) = 10
Sensitivity (A/V) = 1e-7

Results:

Channel 1:
Segment 1:
Ep = 0.129V
ip = 1.417e-9A
Ah = 4.636e-10C

Segment 2:
Ep = -0.061V
ip = -4.397e-10A
Ah = -7.637e-10C

Potential/V, Current/A

-0.500, -1.580e-9
-0.498, -1.454e-9
-0.496, -1.387e-9
-0.494, -1.338e-9
-0.492, -1.299e-9
-0.490, -1.264e-9
-0.488, -1.228e-9
-0.486, -1.197e-9
-0.484, -1.169e-9
-0.482, -1.145e-9
-0.480, -1.120e-9
-0.478, -1.098e-9
-0.476, -1.077e-9
-0.474, -1.059e-9
-0.472, -1.039e-9
-0.470, -1.019e-9
-0.468, -9.981e-10
-0.466, -9.779e-10
-0.464, -9.587e-10
-0.462, -9.407e-10
-0.460, -9.242e-10
-0.458, -9.077e-10
-0.456, -8.922e-10
-0.454, -8.752e-10
-0.452, -8.589e-10
-0.450, -8.463e-10
-0.448, -8.332e-10
-0.446, -8.191e-10
-0.444, -8.055e-10
-0.442, -7.904e-10
-0.440, -7.750e-10
-0.438, -7.603e-10
-0.436, -7.435e-10
-0.434, -7.301e-10
-0.432, -7.150e-10
-0.430, -7.032e-10
-0.428, -6.876e-10
-0.426, -6.756e-10
-0.424, -6.610e-10
-0.422, -6.485e-10
-0.420, -6.348e-10
-0.418, -6.214e-10
-0.416, -6.084e-10
-0.414, -5.966e-10
-0.412, -5.856e-10
-0.410, -5.731e-10
-0.408, -5.589e-10
-0.406, -5.451e-10
-0.404, -5.298e-10
-0.402, -5.176e-10
-0.400, -5.024e-10
-0.398, -4.888e-10
-0.396, -4.765e-10
-0.394, -4.626e-10
-0.392, -4.506e-10
-0.390, -4.377e-10
-0.388, -4.262e-10
-0.386, -4.151e-10
-0.384, -4.030e-10
-0.382, -3.915e-10
-0.380, -3.797e-10
-0.378, -3.666e-10
-0.376, -3.567e-10
-0.374, -3.453e-10
-0.372, -3.349e-10
-0.370, -3.239e-10
-0.368, -3.099e-10
-0.366, -3.008e-10
-0.364, -2.868e-10
-0.362, -2.739e-10
-0.360, -2.603e-10
-0.358, -2.490e-10
-0.356, -2.359e-10
-0.354, -2.241e-10
-0.352, -2.107e-10
-0.350, -1.993e-10
-0.348, -1.895e-10
-0.346, -1.768e-10
-0.344, -1.653e-10
-0.342, -1.530e-10
-0.340, -1.428e-10
-0.338, -1.311e-10
-0.336, -1.208e-10
-0.334, -1.103e-10
-0.332, -9.842e-11
-0.330, -8.711e-11
-0.328, -7.609e-11
-0.326, -6.527e-11
-0.324, -5.211e-11
-0.322, -3.788e-11
-0.320, -2.657e-11
-0.318, -1.293e-11
-0.316, -4.484e-13
-0.314, 1.232e-11
-0.312, 2.577e-11
-0.310, 3.474e-11
-0.308, 4.810e-11
-0.306, 6.379e-11
-0.304, 7.266e-11
-0.302, 8.241e-11
-0.300, 9.411e-11
-0.298, 1.051e-10
-0.296, 1.163e-10
-0.294, 1.267e-10
-0.292, 1.392e-10
-0.290, 1.495e-10
-0.288, 1.591e-10
-0.286, 1.697e-10
-0.284, 1.799e-10
-0.282, 1.926e-10
-0.280, 2.042e-10
-0.278, 2.161e-10
-0.276, 2.313e-10
-0.274, 2.420e-10
-0.272, 2.545e-10
-0.270, 2.659e-10
-0.268, 2.769e-10
-0.266, 2.884e-10
-0.264, 3.008e-10
-0.262, 3.119e-10
-0.260, 3.254e-10
-0.258, 3.365e-10
-0.256, 3.476e-10
-0.254, 3.593e-10
-0.252, 3.685e-10
-0.250, 3.809e-10
-0.248, 3.911e-10
-0.246, 4.022e-10
-0.244, 4.132e-10
-0.242, 4.253e-10
-0.240, 4.399e-10
-0.238, 4.521e-10
-0.236, 4.651e-10
-0.234, 4.795e-10
-0.232, 4.923e-10
-0.230, 5.066e-10
-0.228, 5.192e-10
-0.226, 5.326e-10
-0.224, 5.440e-10
-0.222, 5.557e-10
-0.220, 5.677e-10
-0.218, 5.798e-10
-0.216, 5.918e-10
-0.214, 6.028e-10
-0.212, 6.142e-10
-0.210, 6.275e-10
-0.208, 6.389e-10
-0.206, 6.499e-10
-0.204, 6.577e-10
-0.202, 6.714e-10
-0.200, 6.848e-10
-0.198, 6.967e-10
-0.196, 7.093e-10
-0.194, 7.225e-10
-0.192, 7.346e-10
-0.190, 7.467e-10
-0.188, 7.584e-10
-0.186, 7.706e-10
-0.184, 7.835e-10
-0.182, 7.949e-10
-0.180, 8.061e-10
-0.178, 8.182e-10
-0.176, 8.297e-10
-0.174, 8.433e-10
-0.172, 8.542e-10
-0.170, 8.650e-10
-0.168, 8.778e-10
-0.166, 8.880e-10
-0.164, 9.013e-10
-0.162, 9.136e-10
-0.160, 9.269e-10
-0.158, 9.374e-10
-0.156, 9.500e-10
-0.154, 9.641e-10
-0.152, 9.734e-10
-0.150, 9.844e-10
-0.148, 9.959e-10
-0.146, 1.008e-9
-0.144, 1.020e-9
-0.142, 1.032e-9
-0.140, 1.042e-9
-0.138, 1.055e-9
-0.136, 1.065e-9
-0.134, 1.080e-9
-0.132, 1.091e-9
-0.130, 1.101e-9
-0.128, 1.112e-9
-0.126, 1.122e-9
-0.124, 1.132e-9
-0.122, 1.143e-9
-0.120, 1.155e-9
-0.118, 1.165e-9
-0.116, 1.178e-9
-0.114, 1.190e-9
-0.112, 1.202e-9
-0.110, 1.216e-9
-0.108, 1.227e-9
-0.106, 1.238e-9
-0.104, 1.249e-9
-0.102, 1.266e-9
-0.100, 1.275e-9
-0.098, 1.285e-9
-0.096, 1.295e-9
-0.094, 1.308e-9
-0.092, 1.319e-9
-0.090, 1.329e-9
-0.088, 1.342e-9
-0.086, 1.352e-9
-0.084, 1.363e-9
-0.082, 1.376e-9
-0.080, 1.385e-9
-0.078, 1.397e-9
-0.076, 1.409e-9
-0.074, 1.421e-9
-0.072, 1.432e-9
-0.070, 1.445e-9
-0.068, 1.455e-9
-0.066, 1.467e-9
-0.064, 1.478e-9
-0.062, 1.488e-9
-0.060, 1.497e-9
-0.058, 1.511e-9
-0.056, 1.522e-9
-0.054, 1.533e-9
-0.052, 1.544e-9
-0.050, 1.554e-9
-0.048, 1.567e-9
-0.046, 1.577e-9
-0.044, 1.588e-9
-0.042, 1.601e-9
-0.040, 1.609e-9
-0.038, 1.620e-9
-0.036, 1.630e-9
-0.034, 1.641e-9
-0.032, 1.654e-9
-0.030, 1.664e-9
-0.028, 1.679e-9
-0.026, 1.690e-9
-0.024, 1.701e-9
-0.022, 1.712e-9
-0.020, 1.725e-9
-0.018, 1.736e-9
-0.016, 1.747e-9
-0.014, 1.760e-9
-0.012, 1.770e-9
-0.010, 1.782e-9
-0.008, 1.794e-9
-0.006, 1.806e-9
-0.004, 1.819e-9
-0.002, 1.830e-9
0.000, 1.839e-9
0.002, 1.850e-9
0.004, 1.862e-9
0.006, 1.875e-9
0.008, 1.889e-9
0.010, 1.901e-9
0.012, 1.914e-9
0.014, 1.926e-9
0.016, 1.939e-9
0.018, 1.951e-9
0.020, 1.964e-9
0.022, 1.977e-9
0.024, 1.987e-9
0.026, 1.998e-9
0.028, 2.010e-9
0.030, 2.023e-9
0.032, 2.037e-9
0.034, 2.049e-9
0.036, 2.061e-9
0.038, 2.072e-9
0.040, 2.083e-9
0.042, 2.094e-9
0.044, 2.106e-9
0.046, 2.118e-9
0.048, 2.130e-9
0.050, 2.144e-9
0.052, 2.157e-9
0.054, 2.170e-9
0.056, 2.185e-9
0.058, 2.197e-9
0.060, 2.210e-9
0.062, 2.223e-9
0.064, 2.235e-9
0.066, 2.247e-9
0.068, 2.261e-9
0.070, 2.276e-9
0.072, 2.290e-9
0.074, 2.304e-9
0.076, 2.320e-9
0.078, 2.332e-9
0.080, 2.344e-9
0.082, 2.357e-9
0.084, 2.373e-9
0.086, 2.386e-9
0.088, 2.400e-9
0.090, 2.415e-9
0.092, 2.428e-9
0.094, 2.445e-9
0.096, 2.459e-9
0.098, 2.476e-9
0.100, 2.492e-9
0.102, 2.512e-9
0.104, 2.537e-9
0.106, 2.563e-9
0.108, 2.595e-9
0.110, 2.644e-9
0.112, 2.722e-9
0.114, 2.823e-9
0.116, 2.966e-9
0.118, 3.150e-9
0.120, 3.367e-9
0.122, 3.563e-9
0.124, 3.784e-9
0.126, 3.886e-9
0.128, 3.945e-9
0.130, 3.936e-9
0.132, 3.911e-9
0.134, 3.867e-9
0.136, 3.793e-9
0.138, 3.713e-9
0.140, 3.603e-9
0.142, 3.470e-9
0.144, 3.342e-9
0.146, 3.225e-9
0.148, 3.120e-9
0.150, 3.044e-9
0.152, 2.981e-9
0.154, 2.934e-9
0.156, 2.898e-9
0.158, 2.870e-9
0.160, 2.855e-9
0.162, 2.844e-9
0.164, 2.840e-9
0.166, 2.837e-9
0.168, 2.834e-9
0.170, 2.835e-9
0.172, 2.839e-9
0.174, 2.844e-9
0.176, 2.847e-9
0.178, 2.851e-9
0.180, 2.855e-9
0.182, 2.862e-9
0.184, 2.866e-9
0.186, 2.873e-9
0.188, 2.880e-9
0.190, 2.887e-9
0.192, 2.893e-9
0.194, 2.898e-9
0.196, 2.904e-9
0.198, 2.909e-9
0.200, 2.917e-9
0.202, 2.922e-9
0.204, 2.928e-9
0.206, 2.931e-9
0.208, 2.936e-9
0.210, 2.944e-9
0.212, 2.949e-9
0.214, 2.955e-9
0.216, 2.961e-9
0.218, 2.965e-9
0.220, 2.971e-9
0.222, 2.977e-9
0.224, 2.981e-9
0.226, 2.986e-9
0.228, 2.994e-9
0.230, 3.000e-9
0.232, 3.005e-9
0.234, 3.010e-9
0.236, 3.017e-9
0.238, 3.022e-9
0.240, 3.025e-9
0.242, 3.033e-9
0.244, 3.039e-9
0.246, 3.045e-9
0.248, 3.052e-9
0.250, 3.058e-9
0.252, 3.063e-9
0.254, 3.067e-9
0.256, 3.071e-9
0.258, 3.078e-9
0.260, 3.080e-9
0.262, 3.086e-9
0.264, 3.093e-9
0.266, 3.097e-9
0.268, 3.103e-9
0.270, 3.109e-9
0.272, 3.118e-9
0.274, 3.122e-9
0.276, 3.129e-9
0.278, 3.137e-9
0.280, 3.144e-9
0.282, 3.151e-9
0.284, 3.158e-9
0.286, 3.165e-9
0.288, 3.174e-9
0.290, 3.182e-9
0.292, 3.189e-9
0.294, 3.195e-9
0.296, 3.203e-9
0.298, 3.209e-9
0.300, 3.217e-9
0.302, 3.224e-9
0.304, 3.231e-9
0.306, 3.238e-9
0.308, 3.253e-9
0.310, 3.257e-9
0.312, 3.264e-9
0.314, 3.269e-9
0.316, 3.278e-9
0.318, 3.287e-9
0.320, 3.293e-9
0.322, 3.301e-9
0.324, 3.309e-9
0.326, 3.316e-9
0.328, 3.325e-9
0.330, 3.331e-9
0.332, 3.338e-9
0.334, 3.346e-9
0.336, 3.355e-9
0.338, 3.364e-9
0.340, 3.375e-9
0.342, 3.384e-9
0.344, 3.393e-9
0.346, 3.401e-9
0.348, 3.410e-9
0.350, 3.417e-9
0.352, 3.426e-9
0.354, 3.435e-9
0.356, 3.445e-9
0.358, 3.453e-9
0.360, 3.464e-9
0.362, 3.484e-9
0.364, 3.504e-9
0.366, 3.499e-9
0.368, 3.522e-9
0.370, 3.532e-9
0.372, 3.545e-9
0.374, 3.560e-9
0.376, 3.570e-9
0.378, 3.573e-9
0.380, 3.589e-9
0.382, 3.598e-9
0.384, 3.620e-9
0.386, 3.607e-9
0.388, 3.619e-9
0.390, 3.627e-9
0.392, 3.670e-9
0.394, 3.705e-9
0.396, 3.698e-9
0.398, 3.705e-9
0.400, 3.728e-9
0.402, 3.698e-9
0.404, 3.686e-9
0.406, 3.697e-9
0.408, 3.706e-9
0.410, 3.708e-9
0.412, 3.722e-9
0.414, 3.735e-9
0.416, 3.748e-9
0.418, 3.761e-9
0.420, 3.770e-9
0.422, 3.783e-9
0.424, 3.793e-9
0.426, 3.803e-9
0.428, 3.813e-9
0.430, 3.825e-9
0.432, 3.836e-9
0.434, 3.847e-9
0.436, 3.861e-9
0.438, 3.873e-9
0.440, 3.887e-9
0.442, 3.901e-9
0.444, 3.913e-9
0.446, 3.924e-9
0.448, 3.934e-9
0.450, 3.948e-9
0.452, 3.958e-9
0.454, 3.973e-9
0.456, 3.986e-9
0.458, 3.999e-9
0.460, 4.012e-9
0.462, 4.024e-9
0.464, 4.036e-9
0.466, 4.047e-9
0.468, 4.057e-9
0.470, 4.069e-9
0.472, 4.082e-9
0.474, 4.096e-9
0.476, 4.113e-9
0.478, 4.128e-9
0.480, 4.143e-9
0.482, 4.157e-9
0.484, 4.173e-9
0.486, 4.186e-9
0.488, 4.201e-9
0.490, 4.215e-9
0.492, 4.227e-9
0.494, 4.242e-9
0.496, 4.256e-9
0.498, 4.270e-9
0.500, 4.252e-9
0.498, 3.988e-9
0.496, 3.837e-9
0.494, 3.720e-9
0.492, 3.607e-9
0.490, 3.519e-9
0.488, 3.432e-9
0.486, 3.349e-9
0.484, 3.278e-9
0.482, 3.207e-9
0.480, 3.134e-9
0.478, 3.074e-9
0.476, 3.017e-9
0.474, 2.959e-9
0.472, 2.905e-9
0.470, 2.852e-9
0.468, 2.804e-9
0.466, 2.754e-9
0.464, 2.707e-9
0.462, 2.657e-9
0.460, 2.610e-9
0.458, 2.570e-9
0.456, 2.530e-9
0.454, 2.488e-9
0.452, 2.449e-9
0.450, 2.410e-9
0.448, 2.372e-9
0.446, 2.336e-9
0.444, 2.300e-9
0.442, 2.263e-9
0.440, 2.230e-9
0.438, 2.198e-9
0.436, 2.162e-9
0.434, 2.127e-9
0.432, 2.098e-9
0.430, 2.069e-9
0.428, 2.038e-9
0.426, 2.009e-9
0.424, 1.981e-9
0.422, 1.953e-9
0.420, 1.923e-9
0.418, 1.893e-9
0.416, 1.864e-9
0.414, 1.837e-9
0.412, 1.808e-9
0.410, 1.783e-9
0.408, 1.758e-9
0.406, 1.731e-9
0.404, 1.706e-9
0.402, 1.677e-9
0.400, 1.651e-9
0.398, 1.628e-9
0.396, 1.604e-9
0.394, 1.582e-9
0.392, 1.558e-9
0.390, 1.533e-9
0.388, 1.510e-9
0.386, 1.488e-9
0.384, 1.465e-9
0.382, 1.441e-9
0.380, 1.417e-9
0.378, 1.394e-9
0.376, 1.371e-9
0.374, 1.351e-9
0.372, 1.328e-9
0.370, 1.305e-9
0.368, 1.283e-9
0.366, 1.263e-9
0.364, 1.241e-9
0.362, 1.221e-9
0.360, 1.201e-9
0.358, 1.179e-9
0.356, 1.157e-9
0.354, 1.137e-9
0.352, 1.120e-9
0.350, 1.102e-9
0.348, 1.083e-9
0.346, 1.062e-9
0.344, 1.043e-9
0.342, 1.023e-9
0.340, 1.004e-9
0.338, 9.855e-10
0.336, 9.670e-10
0.334, 9.468e-10
0.332, 9.297e-10
0.330, 9.096e-10
0.328, 8.908e-10
0.326, 8.711e-10
0.324, 8.519e-10
0.322, 8.350e-10
0.320, 8.158e-10
0.318, 7.979e-10
0.316, 7.814e-10
0.314, 7.634e-10
0.312, 7.468e-10
0.310, 7.297e-10
0.308, 7.112e-10
0.306, 6.879e-10
0.304, 6.711e-10
0.302, 6.563e-10
0.300, 6.396e-10
0.298, 6.243e-10
0.296, 6.088e-10
0.294, 5.915e-10
0.292, 5.746e-10
0.290, 5.572e-10
0.288, 5.402e-10
0.286, 5.251e-10
0.284, 5.072e-10
0.282, 4.884e-10
0.280, 4.706e-10
0.278, 4.517e-10
0.276, 4.334e-10
0.274, 4.169e-10
0.272, 4.013e-10
0.270, 3.871e-10
0.268, 3.711e-10
0.266, 3.543e-10
0.264, 3.410e-10
0.262, 3.243e-10
0.260, 3.093e-10
0.258, 2.947e-10
0.256, 2.806e-10
0.254, 2.650e-10
0.252, 2.492e-10
0.250, 2.320e-10
0.248, 2.138e-10
0.246, 1.969e-10
0.244, 1.810e-10
0.242, 1.661e-10
0.240, 1.521e-10
0.238, 1.400e-10
0.236, 1.264e-10
0.234, 1.109e-10
0.232, 9.752e-11
0.230, 8.124e-11
0.228, 6.701e-11
0.226, 5.161e-11
0.224, 3.757e-11
0.222, 2.324e-11
0.220, 7.253e-12
0.218, -9.124e-12
0.216, -2.638e-11
0.214, -4.188e-11
0.212, -5.991e-11
0.210, -7.609e-11
0.208, -9.042e-11
0.206, -1.042e-10
0.204, -1.145e-10
0.202, -1.312e-10
0.200, -1.456e-10
0.198, -1.623e-10
0.196, -1.768e-10
0.194, -1.904e-10
0.192, -2.069e-10
0.190, -2.213e-10
0.188, -2.379e-10
0.186, -2.556e-10
0.184, -2.719e-10
0.182, -2.888e-10
0.180, -3.065e-10
0.178, -3.212e-10
0.176, -3.341e-10
0.174, -3.479e-10
0.172, -3.638e-10
0.170, -3.788e-10
0.168, -3.955e-10
0.166, -4.096e-10
0.164, -4.260e-10
0.162, -4.430e-10
0.160, -4.606e-10
0.158, -4.760e-10
0.156, -4.933e-10
0.154, -5.115e-10
0.152, -5.306e-10
0.150, -5.478e-10
0.148, -5.653e-10
0.146, -5.815e-10
0.144, -5.971e-10
0.142, -6.129e-10
0.140, -6.312e-10
0.138, -6.472e-10
0.136, -6.652e-10
0.134, -6.830e-10
0.132, -7.009e-10
0.130, -7.176e-10
0.128, -7.354e-10
0.126, -7.553e-10
0.124, -7.753e-10
0.122, -7.930e-10
0.120, -8.112e-10
0.118, -8.271e-10
0.116, -8.441e-10
0.114, -8.609e-10
0.112, -8.797e-10
0.110, -8.990e-10
0.108, -9.182e-10
0.106, -9.373e-10
0.104, -9.551e-10
0.102, -9.821e-10
0.100, -1.000e-9
0.098, -1.022e-9
0.096, -1.044e-9
0.094, -1.061e-9
0.092, -1.078e-9
0.090, -1.098e-9
0.088, -1.119e-9
0.086, -1.137e-9
0.084, -1.157e-9
0.082, -1.178e-9
0.080, -1.198e-9
0.078, -1.219e-9
0.076, -1.241e-9
0.074, -1.263e-9
0.072, -1.284e-9
0.070, -1.305e-9
0.068, -1.322e-9
0.066, -1.343e-9
0.064, -1.362e-9
0.062, -1.380e-9
0.060, -1.401e-9
0.058, -1.422e-9
0.056, -1.441e-9
0.054, -1.461e-9
0.052, -1.485e-9
0.050, -1.508e-9
0.048, -1.530e-9
0.046, -1.547e-9
0.044, -1.566e-9
0.042, -1.585e-9
0.040, -1.603e-9
0.038, -1.621e-9
0.036, -1.640e-9
0.034, -1.658e-9
0.032, -1.676e-9
0.030, -1.694e-9
0.028, -1.714e-9
0.026, -1.734e-9
0.024, -1.754e-9
0.022, -1.771e-9
0.020, -1.789e-9
0.018, -1.805e-9
0.016, -1.822e-9
0.014, -1.840e-9
0.012, -1.858e-9
0.010, -1.876e-9
0.008, -1.894e-9
0.006, -1.910e-9
0.004, -1.927e-9
0.002, -1.941e-9
-0.000, -1.953e-9
-0.002, -1.971e-9
-0.004, -1.988e-9
-0.006, -2.005e-9
-0.008, -2.020e-9
-0.010, -2.034e-9
-0.012, -2.049e-9
-0.014, -2.063e-9
-0.016, -2.079e-9
-0.018, -2.094e-9
-0.020, -2.112e-9
-0.022, -2.129e-9
-0.024, -2.149e-9
-0.026, -2.166e-9
-0.028, -2.189e-9
-0.030, -2.210e-9
-0.032, -2.232e-9
-0.034, -2.253e-9
-0.036, -2.279e-9
-0.038, -2.304e-9
-0.040, -2.333e-9
-0.042, -2.366e-9
-0.044, -2.401e-9
-0.046, -2.429e-9
-0.048, -2.474e-9
-0.050, -2.508e-9
-0.052, -2.535e-9
-0.054, -2.567e-9
-0.056, -2.591e-9
-0.058, -2.616e-9
-0.060, -2.610e-9
-0.062, -2.624e-9
-0.064, -2.613e-9
-0.066, -2.619e-9
-0.068, -2.594e-9
-0.070, -2.586e-9
-0.072, -2.558e-9
-0.074, -2.520e-9
-0.076, -2.507e-9
-0.078, -2.512e-9
-0.080, -2.505e-9
-0.082, -2.466e-9
-0.084, -2.470e-9
-0.086, -2.467e-9
-0.088, -2.465e-9
-0.090, -2.485e-9
-0.092, -2.477e-9
-0.094, -2.475e-9
-0.096, -2.500e-9
-0.098, -2.478e-9
-0.100, -2.495e-9
-0.102, -2.497e-9
-0.104, -2.516e-9
-0.106, -2.509e-9
-0.108, -2.514e-9
-0.110, -2.518e-9
-0.112, -2.517e-9
-0.114, -2.519e-9
-0.116, -2.525e-9
-0.118, -2.536e-9
-0.120, -2.544e-9
-0.122, -2.548e-9
-0.124, -2.556e-9
-0.126, -2.558e-9
-0.128, -2.561e-9
-0.130, -2.568e-9
-0.132, -2.575e-9
-0.134, -2.578e-9
-0.136, -2.584e-9
-0.138, -2.599e-9
-0.140, -2.600e-9
-0.142, -2.603e-9
-0.144, -2.609e-9
-0.146, -2.616e-9
-0.148, -2.621e-9
-0.150, -2.627e-9
-0.152, -2.638e-9
-0.154, -2.640e-9
-0.156, -2.645e-9
-0.158, -2.655e-9
-0.160, -2.657e-9
-0.162, -2.662e-9
-0.164, -2.669e-9
-0.166, -2.674e-9
-0.168, -2.680e-9
-0.170, -2.685e-9
-0.172, -2.692e-9
-0.174, -2.700e-9
-0.176, -2.705e-9
-0.178, -2.712e-9
-0.180, -2.720e-9
-0.182, -2.723e-9
-0.184, -2.734e-9
-0.186, -2.741e-9
-0.188, -2.748e-9
-0.190, -2.750e-9
-0.192, -2.755e-9
-0.194, -2.761e-9
-0.196, -2.764e-9
-0.198, -2.770e-9
-0.200, -2.776e-9
-0.202, -2.788e-9
-0.204, -2.788e-9
-0.206, -2.790e-9
-0.208, -2.797e-9
-0.210, -2.805e-9
-0.212, -2.814e-9
-0.214, -2.820e-9
-0.216, -2.824e-9
-0.218, -2.828e-9
-0.220, -2.837e-9
-0.222, -2.844e-9
-0.224, -2.850e-9
-0.226, -2.856e-9
-0.228, -2.861e-9
-0.230, -2.870e-9
-0.232, -2.873e-9
-0.234, -2.876e-9
-0.236, -2.883e-9
-0.238, -2.890e-9
-0.240, -2.896e-9
-0.242, -2.901e-9
-0.244, -2.906e-9
-0.246, -2.913e-9
-0.248, -2.917e-9
-0.250, -2.922e-9
-0.252, -2.928e-9
-0.254, -2.936e-9
-0.256, -2.939e-9
-0.258, -2.944e-9
-0.260, -2.951e-9
-0.262, -2.956e-9
-0.264, -2.963e-9
-0.266, -2.967e-9
-0.268, -2.972e-9
-0.270, -2.978e-9
-0.272, -2.983e-9
-0.274, -2.989e-9
-0.276, -2.994e-9
-0.278, -3.001e-9
-0.280, -3.005e-9
-0.282, -3.008e-9
-0.284, -3.014e-9
-0.286, -3.018e-9
-0.288, -3.025e-9
-0.290, -3.030e-9
-0.292, -3.035e-9
-0.294, -3.039e-9
-0.296, -3.043e-9
-0.298, -3.049e-9
-0.300, -3.054e-9
-0.302, -3.058e-9
-0.304, -3.059e-9
-0.306, -3.066e-9
-0.308, -3.076e-9
-0.310, -3.076e-9
-0.312, -3.081e-9
-0.314, -3.084e-9
-0.316, -3.089e-9
-0.318, -3.094e-9
-0.320, -3.097e-9
-0.322, -3.100e-9
-0.324, -3.103e-9
-0.326, -3.108e-9
-0.328, -3.113e-9
-0.330, -3.116e-9
-0.332, -3.119e-9
-0.334, -3.122e-9
-0.336, -3.126e-9
-0.338, -3.129e-9
-0.340, -3.133e-9
-0.342, -3.138e-9
-0.344, -3.141e-9
-0.346, -3.143e-9
-0.348, -3.147e-9
-0.350, -3.149e-9
-0.352, -3.153e-9
-0.354, -3.158e-9
-0.356, -3.160e-9
-0.358, -3.163e-9
-0.360, -3.166e-9
-0.362, -3.170e-9
-0.364, -3.175e-9
-0.366, -3.179e-9
-0.368, -3.180e-9
-0.370, -3.185e-9
-0.372, -3.187e-9
-0.374, -3.190e-9
-0.376, -3.194e-9
-0.378, -3.199e-9
-0.380, -3.201e-9
-0.382, -3.207e-9
-0.384, -3.209e-9
-0.386, -3.213e-9
-0.388, -3.214e-9
-0.390, -3.219e-9
-0.392, -3.223e-9
-0.394, -3.226e-9
-0.396, -3.230e-9
-0.398, -3.232e-9
-0.400, -3.236e-9
-0.402, -3.241e-9
-0.404, -3.244e-9
-0.406, -3.247e-9
-0.408, -3.248e-9
-0.410, -3.251e-9
-0.412, -3.254e-9
-0.414, -3.259e-9
-0.416, -3.262e-9
-0.418, -3.266e-9
-0.420, -3.265e-9
-0.422, -3.271e-9
-0.424, -3.275e-9
-0.426, -3.278e-9
-0.428, -3.282e-9
-0.430, -3.287e-9
-0.432, -3.289e-9
-0.434, -3.294e-9
-0.436, -3.298e-9
-0.438, -3.302e-9
-0.440, -3.305e-9
-0.442, -3.310e-9
-0.444, -3.316e-9
-0.446, -3.322e-9
-0.448, -3.324e-9
-0.450, -3.327e-9
-0.452, -3.332e-9
-0.454, -3.335e-9
-0.456, -3.340e-9
-0.458, -3.344e-9
-0.460, -3.349e-9
-0.462, -3.354e-9
-0.464, -3.359e-9
-0.466, -3.366e-9
-0.468, -3.369e-9
-0.470, -3.374e-9
-0.472, -3.379e-9
-0.474, -3.381e-9
-0.476, -3.387e-9
-0.478, -3.391e-9
-0.480, -3.397e-9
-0.482, -3.403e-9
-0.484, -3.405e-9
-0.486, -3.411e-9
-0.488, -3.416e-9
-0.490, -3.421e-9
-0.492, -3.427e-9
-0.494, -3.433e-9
-0.496, -3.436e-9
-0.498, -3.442e-9
-0.499, -3.444e-9