File: Fig 4/Fig 3c CV surface dark/CV_surface_dark_10.txt
Nov. 20, 2024   15:57:40
Cyclic Voltammetry
File: +12 2319-1 fto cv_cells_dark_surface_10.bin
Data Source:  Experiment
Instrument Model:  CHI920C
Ref. Electrode:
Header:
Note:

Init E (V) = -0.5
High E (V) = 0.5
Low E (V) = -0.5
Init P/N = P
Scan Rate (V/s) = 0.05
Segment = 2
Sample Interval (V) = 0.001
Quiet Time (sec) = 10
Sensitivity (A/V) = 1e-7

Results:

Channel 1:
Segment 1:
Ep = 0.120V
ip = 2.532e-9A
Ah = 5.479e-10C

Segment 2:

Potential/V, Current/A

-0.500, -1.254e-9
-0.498, -1.126e-9
-0.496, -1.060e-9
-0.494, -1.007e-9
-0.492, -9.632e-10
-0.490, -9.274e-10
-0.488, -8.959e-10
-0.486, -8.678e-10
-0.484, -8.418e-10
-0.482, -8.201e-10
-0.480, -7.993e-10
-0.478, -7.757e-10
-0.476, -7.533e-10
-0.474, -7.310e-10
-0.472, -7.120e-10
-0.470, -6.928e-10
-0.468, -6.746e-10
-0.466, -6.559e-10
-0.464, -6.405e-10
-0.462, -6.219e-10
-0.460, -6.075e-10
-0.458, -5.911e-10
-0.456, -5.767e-10
-0.454, -5.601e-10
-0.452, -5.432e-10
-0.450, -5.275e-10
-0.448, -5.113e-10
-0.446, -4.953e-10
-0.444, -4.797e-10
-0.442, -4.643e-10
-0.440, -4.500e-10
-0.438, -4.358e-10
-0.436, -4.223e-10
-0.434, -4.090e-10
-0.432, -3.960e-10
-0.430, -3.813e-10
-0.428, -3.691e-10
-0.426, -3.550e-10
-0.424, -3.431e-10
-0.422, -3.314e-10
-0.420, -3.190e-10
-0.418, -3.067e-10
-0.416, -2.931e-10
-0.414, -2.798e-10
-0.412, -2.661e-10
-0.410, -2.508e-10
-0.408, -2.365e-10
-0.406, -2.240e-10
-0.404, -2.105e-10
-0.402, -1.997e-10
-0.400, -1.868e-10
-0.398, -1.747e-10
-0.396, -1.640e-10
-0.394, -1.513e-10
-0.392, -1.408e-10
-0.390, -1.287e-10
-0.388, -1.167e-10
-0.386, -1.061e-10
-0.384, -9.559e-11
-0.382, -8.623e-11
-0.380, -7.463e-11
-0.378, -6.206e-11
-0.376, -4.899e-11
-0.374, -3.593e-11
-0.372, -2.238e-11
-0.370, -9.709e-12
-0.368, 2.574e-12
-0.366, 1.447e-11
-0.364, 2.772e-11
-0.362, 3.874e-11
-0.360, 4.946e-11
-0.358, 6.038e-11
-0.356, 7.120e-11
-0.354, 8.319e-11
-0.352, 9.411e-11
-0.350, 1.059e-10
-0.348, 1.164e-10
-0.346, 1.275e-10
-0.344, 1.368e-10
-0.342, 1.467e-10
-0.340, 1.575e-10
-0.338, 1.682e-10
-0.336, 1.774e-10
-0.334, 1.890e-10
-0.332, 2.006e-10
-0.330, 2.140e-10
-0.328, 2.272e-10
-0.326, 2.396e-10
-0.324, 2.520e-10
-0.322, 2.622e-10
-0.320, 2.713e-10
-0.318, 2.849e-10
-0.316, 2.943e-10
-0.314, 3.056e-10
-0.312, 3.177e-10
-0.310, 3.275e-10
-0.308, 3.399e-10
-0.306, 3.550e-10
-0.304, 3.632e-10
-0.302, 3.726e-10
-0.300, 3.831e-10
-0.298, 3.927e-10
-0.296, 4.034e-10
-0.294, 4.135e-10
-0.292, 4.250e-10
-0.290, 4.355e-10
-0.288, 4.492e-10
-0.286, 4.616e-10
-0.284, 4.751e-10
-0.282, 4.887e-10
-0.280, 5.014e-10
-0.278, 5.124e-10
-0.276, 5.239e-10
-0.274, 5.352e-10
-0.272, 5.455e-10
-0.270, 5.548e-10
-0.268, 5.672e-10
-0.266, 5.785e-10
-0.264, 5.910e-10
-0.262, 6.035e-10
-0.260, 6.146e-10
-0.258, 6.249e-10
-0.256, 6.345e-10
-0.254, 6.464e-10
-0.252, 6.587e-10
-0.250, 6.693e-10
-0.248, 6.807e-10
-0.246, 6.916e-10
-0.244, 7.064e-10
-0.242, 7.172e-10
-0.240, 7.302e-10
-0.238, 7.419e-10
-0.236, 7.542e-10
-0.234, 7.659e-10
-0.232, 7.763e-10
-0.230, 7.862e-10
-0.228, 7.987e-10
-0.226, 8.103e-10
-0.224, 8.250e-10
-0.222, 8.353e-10
-0.220, 8.459e-10
-0.218, 8.590e-10
-0.216, 8.690e-10
-0.214, 8.795e-10
-0.212, 8.915e-10
-0.210, 9.043e-10
-0.208, 9.155e-10
-0.206, 9.270e-10
-0.204, 9.372e-10
-0.202, 9.527e-10
-0.200, 9.651e-10
-0.198, 9.763e-10
-0.196, 9.877e-10
-0.194, 9.983e-10
-0.192, 1.008e-9
-0.190, 1.018e-9
-0.188, 1.031e-9
-0.186, 1.043e-9
-0.184, 1.055e-9
-0.182, 1.067e-9
-0.180, 1.079e-9
-0.178, 1.090e-9
-0.176, 1.101e-9
-0.174, 1.111e-9
-0.172, 1.122e-9
-0.170, 1.134e-9
-0.168, 1.146e-9
-0.166, 1.155e-9
-0.164, 1.167e-9
-0.162, 1.179e-9
-0.160, 1.193e-9
-0.158, 1.206e-9
-0.156, 1.217e-9
-0.154, 1.229e-9
-0.152, 1.240e-9
-0.150, 1.252e-9
-0.148, 1.264e-9
-0.146, 1.275e-9
-0.144, 1.287e-9
-0.142, 1.298e-9
-0.140, 1.310e-9
-0.138, 1.322e-9
-0.136, 1.335e-9
-0.134, 1.348e-9
-0.132, 1.358e-9
-0.130, 1.370e-9
-0.128, 1.380e-9
-0.126, 1.392e-9
-0.124, 1.407e-9
-0.122, 1.419e-9
-0.120, 1.431e-9
-0.118, 1.443e-9
-0.116, 1.456e-9
-0.114, 1.468e-9
-0.112, 1.478e-9
-0.110, 1.490e-9
-0.108, 1.501e-9
-0.106, 1.515e-9
-0.104, 1.525e-9
-0.102, 1.541e-9
-0.100, 1.552e-9
-0.098, 1.563e-9
-0.096, 1.575e-9
-0.094, 1.588e-9
-0.092, 1.598e-9
-0.090, 1.608e-9
-0.088, 1.619e-9
-0.086, 1.630e-9
-0.084, 1.641e-9
-0.082, 1.655e-9
-0.080, 1.667e-9
-0.078, 1.679e-9
-0.076, 1.692e-9
-0.074, 1.704e-9
-0.072, 1.715e-9
-0.070, 1.728e-9
-0.068, 1.737e-9
-0.066, 1.749e-9
-0.064, 1.761e-9
-0.062, 1.772e-9
-0.060, 1.785e-9
-0.058, 1.798e-9
-0.056, 1.809e-9
-0.054, 1.820e-9
-0.052, 1.832e-9
-0.050, 1.844e-9
-0.048, 1.857e-9
-0.046, 1.870e-9
-0.044, 1.882e-9
-0.042, 1.892e-9
-0.040, 1.904e-9
-0.038, 1.916e-9
-0.036, 1.928e-9
-0.034, 1.942e-9
-0.032, 1.953e-9
-0.030, 1.965e-9
-0.028, 1.977e-9
-0.026, 1.989e-9
-0.024, 1.999e-9
-0.022, 2.010e-9
-0.020, 2.022e-9
-0.018, 2.035e-9
-0.016, 2.046e-9
-0.014, 2.057e-9
-0.012, 2.068e-9
-0.010, 2.081e-9
-0.008, 2.090e-9
-0.006, 2.103e-9
-0.004, 2.113e-9
-0.002, 2.125e-9
0.000, 2.133e-9
0.002, 2.145e-9
0.004, 2.160e-9
0.006, 2.174e-9
0.008, 2.186e-9
0.010, 2.200e-9
0.012, 2.210e-9
0.014, 2.222e-9
0.016, 2.234e-9
0.018, 2.246e-9
0.020, 2.259e-9
0.022, 2.272e-9
0.024, 2.284e-9
0.026, 2.296e-9
0.028, 2.309e-9
0.030, 2.323e-9
0.032, 2.337e-9
0.034, 2.348e-9
0.036, 2.359e-9
0.038, 2.372e-9
0.040, 2.385e-9
0.042, 2.398e-9
0.044, 2.412e-9
0.046, 2.426e-9
0.048, 2.438e-9
0.050, 2.448e-9
0.052, 2.461e-9
0.054, 2.475e-9
0.056, 2.489e-9
0.058, 2.501e-9
0.060, 2.515e-9
0.062, 2.529e-9
0.064, 2.542e-9
0.066, 2.555e-9
0.068, 2.567e-9
0.070, 2.580e-9
0.072, 2.592e-9
0.074, 2.606e-9
0.076, 2.618e-9
0.078, 2.633e-9
0.080, 2.653e-9
0.082, 2.668e-9
0.084, 2.685e-9
0.086, 2.702e-9
0.088, 2.719e-9
0.090, 2.736e-9
0.092, 2.752e-9
0.094, 2.772e-9
0.096, 2.793e-9
0.098, 2.820e-9
0.100, 2.856e-9
0.102, 2.918e-9
0.104, 3.011e-9
0.106, 3.143e-9
0.108, 3.346e-9
0.110, 3.626e-9
0.112, 4.010e-9
0.114, 4.456e-9
0.116, 4.926e-9
0.118, 5.301e-9
0.120, 5.352e-9
0.122, 5.213e-9
0.124, 4.901e-9
0.126, 4.557e-9
0.128, 4.226e-9
0.130, 3.944e-9
0.132, 3.700e-9
0.134, 3.504e-9
0.136, 3.366e-9
0.138, 3.270e-9
0.140, 3.211e-9
0.142, 3.164e-9
0.144, 3.135e-9
0.146, 3.118e-9
0.148, 3.111e-9
0.150, 3.109e-9
0.152, 3.111e-9
0.154, 3.107e-9
0.156, 3.109e-9
0.158, 3.109e-9
0.160, 3.113e-9
0.162, 3.117e-9
0.164, 3.128e-9
0.166, 3.132e-9
0.168, 3.135e-9
0.170, 3.138e-9
0.172, 3.148e-9
0.174, 3.155e-9
0.176, 3.160e-9
0.178, 3.168e-9
0.180, 3.174e-9
0.182, 3.180e-9
0.184, 3.184e-9
0.186, 3.190e-9
0.188, 3.197e-9
0.190, 3.202e-9
0.192, 3.210e-9
0.194, 3.217e-9
0.196, 3.222e-9
0.198, 3.228e-9
0.200, 3.236e-9
0.202, 3.241e-9
0.204, 3.245e-9
0.206, 3.249e-9
0.208, 3.257e-9
0.210, 3.263e-9
0.212, 3.267e-9
0.214, 3.270e-9
0.216, 3.276e-9
0.218, 3.281e-9
0.220, 3.286e-9
0.222, 3.289e-9
0.224, 3.294e-9
0.226, 3.300e-9
0.228, 3.304e-9
0.230, 3.310e-9
0.232, 3.314e-9
0.234, 3.318e-9
0.236, 3.323e-9
0.238, 3.328e-9
0.240, 3.334e-9
0.242, 3.339e-9
0.244, 3.342e-9
0.246, 3.349e-9
0.248, 3.351e-9
0.250, 3.357e-9
0.252, 3.361e-9
0.254, 3.366e-9
0.256, 3.371e-9
0.258, 3.376e-9
0.260, 3.384e-9
0.262, 3.389e-9
0.264, 3.394e-9
0.266, 3.398e-9
0.268, 3.402e-9
0.270, 3.410e-9
0.272, 3.415e-9
0.274, 3.421e-9
0.276, 3.426e-9
0.278, 3.433e-9
0.280, 3.437e-9
0.282, 3.439e-9
0.284, 3.448e-9
0.286, 3.454e-9
0.288, 3.460e-9
0.290, 3.465e-9
0.292, 3.472e-9
0.294, 3.479e-9
0.296, 3.487e-9
0.298, 3.491e-9
0.300, 3.499e-9
0.302, 3.507e-9
0.304, 3.513e-9
0.306, 3.521e-9
0.308, 3.532e-9
0.310, 3.535e-9
0.312, 3.541e-9
0.314, 3.548e-9
0.316, 3.553e-9
0.318, 3.560e-9
0.320, 3.567e-9
0.322, 3.574e-9
0.324, 3.580e-9
0.326, 3.587e-9
0.328, 3.595e-9
0.330, 3.601e-9
0.332, 3.612e-9
0.334, 3.624e-9
0.336, 3.632e-9
0.338, 3.641e-9
0.340, 3.652e-9
0.342, 3.662e-9
0.344, 3.671e-9
0.346, 3.676e-9
0.348, 3.687e-9
0.350, 3.698e-9
0.352, 3.708e-9
0.354, 3.717e-9
0.356, 3.725e-9
0.358, 3.733e-9
0.360, 3.744e-9
0.362, 3.752e-9
0.364, 3.761e-9
0.366, 3.772e-9
0.368, 3.783e-9
0.370, 3.791e-9
0.372, 3.800e-9
0.374, 3.810e-9
0.376, 3.819e-9
0.378, 3.830e-9
0.380, 3.838e-9
0.382, 3.848e-9
0.384, 3.854e-9
0.386, 3.864e-9
0.388, 3.874e-9
0.390, 3.887e-9
0.392, 3.898e-9
0.394, 3.908e-9
0.396, 3.922e-9
0.398, 3.931e-9
0.400, 3.942e-9
0.402, 3.953e-9
0.404, 3.963e-9
0.406, 3.974e-9
0.408, 3.985e-9
0.410, 3.990e-9
0.412, 4.004e-9
0.414, 4.018e-9
0.416, 4.029e-9
0.418, 4.040e-9
0.420, 4.050e-9
0.422, 4.061e-9
0.424, 4.073e-9
0.426, 4.084e-9
0.428, 4.095e-9
0.430, 4.110e-9
0.432, 4.124e-9
0.434, 4.137e-9
0.436, 4.151e-9
0.438, 4.165e-9
0.440, 4.179e-9
0.442, 4.192e-9
0.444, 4.204e-9
0.446, 4.218e-9
0.448, 4.230e-9
0.450, 4.244e-9
0.452, 4.257e-9
0.454, 4.270e-9
0.456, 4.284e-9
0.458, 4.295e-9
0.460, 4.310e-9
0.462, 4.320e-9
0.464, 4.333e-9
0.466, 4.347e-9
0.468, 4.363e-9
0.470, 4.378e-9
0.472, 4.393e-9
0.474, 4.408e-9
0.476, 4.422e-9
0.478, 4.436e-9
0.480, 4.451e-9
0.482, 4.464e-9
0.484, 4.481e-9
0.486, 4.496e-9
0.488, 4.512e-9
0.490, 4.528e-9
0.492, 4.543e-9
0.494, 4.557e-9
0.496, 4.570e-9
0.498, 4.587e-9
0.500, 4.567e-9
0.498, 4.285e-9
0.496, 4.127e-9
0.494, 4.009e-9
0.492, 3.898e-9
0.490, 3.800e-9
0.488, 3.714e-9
0.486, 3.629e-9
0.484, 3.555e-9
0.482, 3.487e-9
0.480, 3.419e-9
0.478, 3.347e-9
0.476, 3.289e-9
0.474, 3.228e-9
0.472, 3.170e-9
0.470, 3.111e-9
0.468, 3.065e-9
0.466, 3.015e-9
0.464, 2.965e-9
0.462, 2.919e-9
0.460, 2.872e-9
0.458, 2.827e-9
0.456, 2.786e-9
0.454, 2.746e-9
0.452, 2.704e-9
0.450, 2.657e-9
0.448, 2.616e-9
0.446, 2.582e-9
0.444, 2.545e-9
0.442, 2.508e-9
0.440, 2.475e-9
0.438, 2.439e-9
0.436, 2.404e-9
0.434, 2.369e-9
0.432, 2.337e-9
0.430, 2.304e-9
0.428, 2.272e-9
0.426, 2.241e-9
0.424, 2.210e-9
0.422, 2.178e-9
0.420, 2.143e-9
0.418, 2.115e-9
0.416, 2.088e-9
0.414, 2.062e-9
0.412, 2.036e-9
0.410, 2.008e-9
0.408, 1.983e-9
0.406, 1.957e-9
0.404, 1.929e-9
0.402, 1.899e-9
0.400, 1.872e-9
0.398, 1.846e-9
0.396, 1.821e-9
0.394, 1.794e-9
0.392, 1.769e-9
0.390, 1.744e-9
0.388, 1.720e-9
0.386, 1.695e-9
0.384, 1.669e-9
0.382, 1.643e-9
0.380, 1.621e-9
0.378, 1.598e-9
0.376, 1.575e-9
0.374, 1.553e-9
0.372, 1.529e-9
0.370, 1.508e-9
0.368, 1.487e-9
0.366, 1.465e-9
0.364, 1.442e-9
0.362, 1.418e-9
0.360, 1.395e-9
0.358, 1.374e-9
0.356, 1.353e-9
0.354, 1.331e-9
0.352, 1.308e-9
0.350, 1.286e-9
0.348, 1.267e-9
0.346, 1.246e-9
0.344, 1.228e-9
0.342, 1.205e-9
0.340, 1.184e-9
0.338, 1.162e-9
0.336, 1.142e-9
0.334, 1.126e-9
0.332, 1.107e-9
0.330, 1.089e-9
0.328, 1.070e-9
0.326, 1.051e-9
0.324, 1.032e-9
0.322, 1.013e-9
0.320, 9.949e-10
0.318, 9.774e-10
0.316, 9.587e-10
0.314, 9.392e-10
0.312, 9.209e-10
0.310, 9.017e-10
0.308, 8.832e-10
0.306, 8.616e-10
0.304, 8.439e-10
0.302, 8.276e-10
0.300, 8.097e-10
0.298, 7.906e-10
0.296, 7.745e-10
0.294, 7.579e-10
0.292, 7.406e-10
0.290, 7.235e-10
0.288, 7.054e-10
0.286, 6.861e-10
0.284, 6.695e-10
0.282, 6.517e-10
0.280, 6.362e-10
0.278, 6.194e-10
0.276, 6.017e-10
0.274, 5.856e-10
0.272, 5.696e-10
0.270, 5.520e-10
0.268, 5.361e-10
0.266, 5.184e-10
0.264, 5.017e-10
0.262, 4.829e-10
0.260, 4.620e-10
0.258, 4.443e-10
0.256, 4.262e-10
0.254, 4.115e-10
0.252, 3.956e-10
0.250, 3.801e-10
0.248, 3.655e-10
0.246, 3.502e-10
0.244, 3.329e-10
0.242, 3.176e-10
0.240, 3.025e-10
0.238, 2.861e-10
0.236, 2.706e-10
0.234, 2.545e-10
0.232, 2.372e-10
0.230, 2.209e-10
0.228, 2.018e-10
0.226, 1.850e-10
0.224, 1.688e-10
0.222, 1.549e-10
0.220, 1.400e-10
0.218, 1.267e-10
0.216, 1.126e-10
0.214, 9.577e-11
0.212, 7.900e-11
0.210, 6.194e-11
0.208, 4.722e-11
0.206, 3.123e-11
0.204, 2.022e-11
0.202, -2.534e-13
0.200, -1.809e-11
0.198, -3.856e-11
0.196, -5.553e-11
0.194, -7.366e-11
0.192, -8.867e-11
0.190, -1.029e-10
0.188, -1.198e-10
0.186, -1.378e-10
0.184, -1.542e-10
0.182, -1.704e-10
0.180, -1.884e-10
0.178, -2.042e-10
0.176, -2.204e-10
0.174, -2.398e-10
0.172, -2.577e-10
0.170, -2.774e-10
0.168, -2.974e-10
0.166, -3.143e-10
0.164, -3.315e-10
0.162, -3.482e-10
0.160, -3.648e-10
0.158, -3.816e-10
0.156, -4.009e-10
0.154, -4.178e-10
0.152, -4.361e-10
0.150, -4.533e-10
0.148, -4.727e-10
0.146, -4.933e-10
0.144, -5.131e-10
0.142, -5.348e-10
0.140, -5.561e-10
0.138, -5.751e-10
0.136, -5.932e-10
0.134, -6.108e-10
0.132, -6.317e-10
0.130, -6.517e-10
0.128, -6.721e-10
0.126, -6.916e-10
0.124, -7.091e-10
0.122, -7.305e-10
0.120, -7.548e-10
0.118, -7.769e-10
0.116, -7.969e-10
0.114, -8.159e-10
0.112, -8.336e-10
0.110, -8.546e-10
0.108, -8.769e-10
0.106, -8.976e-10
0.104, -9.203e-10
0.102, -9.460e-10
0.100, -9.653e-10
0.098, -9.869e-10
0.096, -1.010e-9
0.094, -1.035e-9
0.092, -1.058e-9
0.090, -1.078e-9
0.088, -1.099e-9
0.086, -1.118e-9
0.084, -1.140e-9
0.082, -1.162e-9
0.080, -1.185e-9
0.078, -1.205e-9
0.076, -1.227e-9
0.074, -1.253e-9
0.072, -1.277e-9
0.070, -1.297e-9
0.068, -1.316e-9
0.066, -1.336e-9
0.064, -1.357e-9
0.062, -1.378e-9
0.060, -1.397e-9
0.058, -1.421e-9
0.056, -1.439e-9
0.054, -1.459e-9
0.052, -1.483e-9
0.050, -1.506e-9
0.048, -1.529e-9
0.046, -1.548e-9
0.044, -1.567e-9
0.042, -1.584e-9
0.040, -1.602e-9
0.038, -1.620e-9
0.036, -1.640e-9
0.034, -1.657e-9
0.032, -1.674e-9
0.030, -1.693e-9
0.028, -1.711e-9
0.026, -1.731e-9
0.024, -1.752e-9
0.022, -1.769e-9
0.020, -1.785e-9
0.018, -1.801e-9
0.016, -1.817e-9
0.014, -1.834e-9
0.012, -1.851e-9
0.010, -1.867e-9
0.008, -1.885e-9
0.006, -1.901e-9
0.004, -1.916e-9
0.002, -1.930e-9
-0.000, -1.941e-9
-0.002, -1.955e-9
-0.004, -1.971e-9
-0.006, -1.986e-9
-0.008, -2.002e-9
-0.010, -2.017e-9
-0.012, -2.033e-9
-0.014, -2.048e-9
-0.016, -2.064e-9
-0.018, -2.082e-9
-0.020, -2.103e-9
-0.022, -2.126e-9
-0.024, -2.148e-9
-0.026, -2.173e-9
-0.028, -2.200e-9
-0.030, -2.224e-9
-0.032, -2.257e-9
-0.034, -2.282e-9
-0.036, -2.301e-9
-0.038, -2.336e-9
-0.040, -2.366e-9
-0.042, -2.395e-9
-0.044, -2.431e-9
-0.046, -2.463e-9
-0.048, -2.496e-9
-0.050, -2.524e-9
-0.052, -2.559e-9
-0.054, -2.577e-9
-0.056, -2.578e-9
-0.058, -2.590e-9
-0.060, -2.565e-9
-0.062, -2.557e-9
-0.064, -2.545e-9
-0.066, -2.548e-9
-0.068, -2.504e-9
-0.070, -2.478e-9
-0.072, -2.471e-9
-0.074, -2.454e-9
-0.076, -2.449e-9
-0.078, -2.437e-9
-0.080, -2.424e-9
-0.082, -2.417e-9
-0.084, -2.409e-9
-0.086, -2.412e-9
-0.088, -2.434e-9
-0.090, -2.403e-9
-0.092, -2.408e-9
-0.094, -2.435e-9
-0.096, -2.421e-9
-0.098, -2.426e-9
-0.100, -2.422e-9
-0.102, -2.409e-9
-0.104, -2.427e-9
-0.106, -2.416e-9
-0.108, -2.429e-9
-0.110, -2.430e-9
-0.112, -2.427e-9
-0.114, -2.426e-9
-0.116, -2.458e-9
-0.118, -2.435e-9
-0.120, -2.431e-9
-0.122, -2.449e-9
-0.124, -2.444e-9
-0.126, -2.442e-9
-0.128, -2.452e-9
-0.130, -2.456e-9
-0.132, -2.461e-9
-0.134, -2.466e-9
-0.136, -2.465e-9
-0.138, -2.477e-9
-0.140, -2.473e-9
-0.142, -2.478e-9
-0.144, -2.485e-9
-0.146, -2.500e-9
-0.148, -2.500e-9
-0.150, -2.504e-9
-0.152, -2.505e-9
-0.154, -2.509e-9
-0.156, -2.516e-9
-0.158, -2.525e-9
-0.160, -2.526e-9
-0.162, -2.532e-9
-0.164, -2.534e-9
-0.166, -2.539e-9
-0.168, -2.544e-9
-0.170, -2.548e-9
-0.172, -2.552e-9
-0.174, -2.559e-9
-0.176, -2.564e-9
-0.178, -2.572e-9
-0.180, -2.574e-9
-0.182, -2.581e-9
-0.184, -2.588e-9
-0.186, -2.594e-9
-0.188, -2.600e-9
-0.190, -2.608e-9
-0.192, -2.610e-9
-0.194, -2.619e-9
-0.196, -2.621e-9
-0.198, -2.627e-9
-0.200, -2.634e-9
-0.202, -2.635e-9
-0.204, -2.643e-9
-0.206, -2.645e-9
-0.208, -2.653e-9
-0.210, -2.656e-9
-0.212, -2.663e-9
-0.214, -2.669e-9
-0.216, -2.676e-9
-0.218, -2.681e-9
-0.220, -2.689e-9
-0.222, -2.693e-9
-0.224, -2.700e-9
-0.226, -2.705e-9
-0.228, -2.711e-9
-0.230, -2.715e-9
-0.232, -2.725e-9
-0.234, -2.733e-9
-0.236, -2.739e-9
-0.238, -2.745e-9
-0.240, -2.753e-9
-0.242, -2.754e-9
-0.244, -2.758e-9
-0.246, -2.763e-9
-0.248, -2.768e-9
-0.250, -2.775e-9
-0.252, -2.778e-9
-0.254, -2.782e-9
-0.256, -2.787e-9
-0.258, -2.792e-9
-0.260, -2.799e-9
-0.262, -2.807e-9
-0.264, -2.810e-9
-0.266, -2.813e-9
-0.268, -2.818e-9
-0.270, -2.823e-9
-0.272, -2.828e-9
-0.274, -2.834e-9
-0.276, -2.842e-9
-0.278, -2.847e-9
-0.280, -2.850e-9
-0.282, -2.855e-9
-0.284, -2.862e-9
-0.286, -2.864e-9
-0.288, -2.868e-9
-0.290, -2.871e-9
-0.292, -2.877e-9
-0.294, -2.882e-9
-0.296, -2.885e-9
-0.298, -2.889e-9
-0.300, -2.893e-9
-0.302, -2.898e-9
-0.304, -2.902e-9
-0.306, -2.906e-9
-0.308, -2.914e-9
-0.310, -2.916e-9
-0.312, -2.917e-9
-0.314, -2.921e-9
-0.316, -2.923e-9
-0.318, -2.927e-9
-0.320, -2.930e-9
-0.322, -2.933e-9
-0.324, -2.936e-9
-0.326, -2.942e-9
-0.328, -2.944e-9
-0.330, -2.948e-9
-0.332, -2.951e-9
-0.334, -2.953e-9
-0.336, -2.957e-9
-0.338, -2.959e-9
-0.340, -2.965e-9
-0.342, -2.968e-9
-0.344, -2.971e-9
-0.346, -2.973e-9
-0.348, -2.978e-9
-0.350, -2.979e-9
-0.352, -2.983e-9
-0.354, -2.987e-9
-0.356, -2.991e-9
-0.358, -2.993e-9
-0.360, -2.995e-9
-0.362, -3.000e-9
-0.364, -3.003e-9
-0.366, -3.005e-9
-0.368, -3.007e-9
-0.370, -3.012e-9
-0.372, -3.013e-9
-0.374, -3.016e-9
-0.376, -3.019e-9
-0.378, -3.024e-9
-0.380, -3.027e-9
-0.382, -3.030e-9
-0.384, -3.030e-9
-0.386, -3.034e-9
-0.388, -3.037e-9
-0.390, -3.041e-9
-0.392, -3.043e-9
-0.394, -3.047e-9
-0.396, -3.050e-9
-0.398, -3.054e-9
-0.400, -3.059e-9
-0.402, -3.062e-9
-0.404, -3.066e-9
-0.406, -3.070e-9
-0.408, -3.072e-9
-0.410, -3.076e-9
-0.412, -3.080e-9
-0.414, -3.084e-9
-0.416, -3.088e-9
-0.418, -3.091e-9
-0.420, -3.095e-9
-0.422, -3.099e-9
-0.424, -3.102e-9
-0.426, -3.105e-9
-0.428, -3.110e-9
-0.430, -3.114e-9
-0.432, -3.118e-9
-0.434, -3.118e-9
-0.436, -3.123e-9
-0.438, -3.128e-9
-0.440, -3.131e-9
-0.442, -3.136e-9
-0.444, -3.138e-9
-0.446, -3.142e-9
-0.448, -3.147e-9
-0.450, -3.152e-9
-0.452, -3.154e-9
-0.454, -3.161e-9
-0.456, -3.166e-9
-0.458, -3.168e-9
-0.460, -3.174e-9
-0.462, -3.178e-9
-0.464, -3.184e-9
-0.466, -3.187e-9
-0.468, -3.193e-9
-0.470, -3.197e-9
-0.472, -3.202e-9
-0.474, -3.206e-9
-0.476, -3.210e-9
-0.478, -3.215e-9
-0.480, -3.221e-9
-0.482, -3.227e-9
-0.484, -3.232e-9
-0.486, -3.235e-9
-0.488, -3.240e-9
-0.490, -3.243e-9
-0.492, -3.250e-9
-0.494, -3.253e-9
-0.496, -3.257e-9
-0.498, -3.262e-9
-0.499, -3.264e-9