File: Fig 4/Fig 3c CV surface dark/CV_surface_dark_8.txt
Nov. 20, 2024   15:55:30
Cyclic Voltammetry
File: +12 2319-1 fto cv_cells_dark_surface_8.bin
Data Source:  Experiment
Instrument Model:  CHI920C
Ref. Electrode:
Header:
Note:

Init E (V) = -0.5
High E (V) = 0.5
Low E (V) = -0.5
Init P/N = P
Scan Rate (V/s) = 0.05
Segment = 2
Sample Interval (V) = 0.001
Quiet Time (sec) = 10
Sensitivity (A/V) = 1e-7

Results:

Channel 1:
Segment 1:
Ep = 0.121V
ip = 2.449e-9A
Ah = 5.235e-10C

Segment 2:

Potential/V, Current/A

-0.500, -1.294e-9
-0.498, -1.165e-9
-0.496, -1.098e-9
-0.494, -1.050e-9
-0.492, -1.006e-9
-0.490, -9.668e-10
-0.488, -9.332e-10
-0.486, -9.064e-10
-0.484, -8.793e-10
-0.482, -8.562e-10
-0.480, -8.323e-10
-0.478, -8.117e-10
-0.476, -7.924e-10
-0.474, -7.715e-10
-0.472, -7.493e-10
-0.470, -7.287e-10
-0.468, -7.106e-10
-0.466, -6.942e-10
-0.464, -6.764e-10
-0.462, -6.596e-10
-0.460, -6.430e-10
-0.458, -6.280e-10
-0.456, -6.105e-10
-0.454, -5.955e-10
-0.452, -5.820e-10
-0.450, -5.676e-10
-0.448, -5.526e-10
-0.446, -5.366e-10
-0.444, -5.208e-10
-0.442, -5.041e-10
-0.440, -4.877e-10
-0.438, -4.738e-10
-0.436, -4.584e-10
-0.434, -4.455e-10
-0.432, -4.316e-10
-0.430, -4.177e-10
-0.428, -4.044e-10
-0.426, -3.897e-10
-0.424, -3.779e-10
-0.422, -3.653e-10
-0.420, -3.534e-10
-0.418, -3.419e-10
-0.416, -3.303e-10
-0.414, -3.187e-10
-0.412, -3.069e-10
-0.410, -2.918e-10
-0.408, -2.773e-10
-0.406, -2.641e-10
-0.404, -2.487e-10
-0.402, -2.359e-10
-0.400, -2.250e-10
-0.398, -2.132e-10
-0.396, -2.019e-10
-0.394, -1.886e-10
-0.392, -1.754e-10
-0.390, -1.640e-10
-0.388, -1.520e-10
-0.386, -1.396e-10
-0.384, -1.285e-10
-0.382, -1.181e-10
-0.380, -1.065e-10
-0.378, -9.423e-11
-0.376, -8.506e-11
-0.374, -7.317e-11
-0.372, -6.245e-11
-0.370, -5.046e-11
-0.368, -3.808e-11
-0.366, -2.472e-11
-0.364, -9.807e-12
-0.362, 8.189e-13
-0.360, 1.593e-11
-0.358, 2.587e-11
-0.356, 3.698e-11
-0.354, 4.858e-11
-0.352, 6.009e-11
-0.350, 7.052e-11
-0.348, 8.270e-11
-0.346, 9.489e-11
-0.344, 1.041e-10
-0.342, 1.152e-10
-0.340, 1.264e-10
-0.338, 1.367e-10
-0.336, 1.456e-10
-0.334, 1.558e-10
-0.332, 1.649e-10
-0.330, 1.758e-10
-0.328, 1.861e-10
-0.326, 2.001e-10
-0.324, 2.120e-10
-0.322, 2.237e-10
-0.320, 2.360e-10
-0.318, 2.482e-10
-0.316, 2.590e-10
-0.314, 2.708e-10
-0.312, 2.816e-10
-0.310, 2.919e-10
-0.308, 3.035e-10
-0.306, 3.180e-10
-0.304, 3.283e-10
-0.302, 3.379e-10
-0.300, 3.488e-10
-0.298, 3.592e-10
-0.296, 3.699e-10
-0.294, 3.788e-10
-0.292, 3.901e-10
-0.290, 4.004e-10
-0.288, 4.124e-10
-0.286, 4.224e-10
-0.284, 4.362e-10
-0.282, 4.468e-10
-0.280, 4.600e-10
-0.278, 4.741e-10
-0.276, 4.875e-10
-0.274, 5.015e-10
-0.272, 5.125e-10
-0.270, 5.251e-10
-0.268, 5.374e-10
-0.266, 5.487e-10
-0.264, 5.594e-10
-0.262, 5.690e-10
-0.260, 5.812e-10
-0.258, 5.943e-10
-0.256, 6.043e-10
-0.254, 6.161e-10
-0.252, 6.263e-10
-0.250, 6.385e-10
-0.248, 6.485e-10
-0.246, 6.589e-10
-0.244, 6.702e-10
-0.242, 6.825e-10
-0.240, 6.951e-10
-0.238, 7.075e-10
-0.236, 7.204e-10
-0.234, 7.317e-10
-0.232, 7.437e-10
-0.230, 7.531e-10
-0.228, 7.664e-10
-0.226, 7.762e-10
-0.224, 7.870e-10
-0.222, 7.985e-10
-0.220, 8.107e-10
-0.218, 8.232e-10
-0.216, 8.349e-10
-0.214, 8.457e-10
-0.212, 8.573e-10
-0.210, 8.696e-10
-0.208, 8.805e-10
-0.206, 8.940e-10
-0.204, 9.003e-10
-0.202, 9.156e-10
-0.200, 9.287e-10
-0.198, 9.414e-10
-0.196, 9.553e-10
-0.194, 9.647e-10
-0.192, 9.761e-10
-0.190, 9.887e-10
-0.188, 9.990e-10
-0.186, 1.011e-9
-0.184, 1.023e-9
-0.182, 1.034e-9
-0.180, 1.047e-9
-0.178, 1.058e-9
-0.176, 1.071e-9
-0.174, 1.082e-9
-0.172, 1.093e-9
-0.170, 1.104e-9
-0.168, 1.115e-9
-0.166, 1.124e-9
-0.164, 1.135e-9
-0.162, 1.147e-9
-0.160, 1.159e-9
-0.158, 1.171e-9
-0.156, 1.184e-9
-0.154, 1.198e-9
-0.152, 1.209e-9
-0.150, 1.221e-9
-0.148, 1.234e-9
-0.146, 1.245e-9
-0.144, 1.256e-9
-0.142, 1.268e-9
-0.140, 1.278e-9
-0.138, 1.290e-9
-0.136, 1.302e-9
-0.134, 1.315e-9
-0.132, 1.326e-9
-0.130, 1.339e-9
-0.128, 1.350e-9
-0.126, 1.363e-9
-0.124, 1.375e-9
-0.122, 1.386e-9
-0.120, 1.398e-9
-0.118, 1.410e-9
-0.116, 1.424e-9
-0.114, 1.436e-9
-0.112, 1.447e-9
-0.110, 1.460e-9
-0.108, 1.472e-9
-0.106, 1.483e-9
-0.104, 1.494e-9
-0.102, 1.510e-9
-0.100, 1.520e-9
-0.098, 1.531e-9
-0.096, 1.544e-9
-0.094, 1.556e-9
-0.092, 1.566e-9
-0.090, 1.577e-9
-0.088, 1.589e-9
-0.086, 1.599e-9
-0.084, 1.611e-9
-0.082, 1.621e-9
-0.080, 1.633e-9
-0.078, 1.643e-9
-0.076, 1.655e-9
-0.074, 1.668e-9
-0.072, 1.680e-9
-0.070, 1.693e-9
-0.068, 1.706e-9
-0.066, 1.718e-9
-0.064, 1.728e-9
-0.062, 1.740e-9
-0.060, 1.751e-9
-0.058, 1.763e-9
-0.056, 1.775e-9
-0.054, 1.786e-9
-0.052, 1.798e-9
-0.050, 1.809e-9
-0.048, 1.822e-9
-0.046, 1.834e-9
-0.044, 1.847e-9
-0.042, 1.859e-9
-0.040, 1.869e-9
-0.038, 1.880e-9
-0.036, 1.893e-9
-0.034, 1.906e-9
-0.032, 1.918e-9
-0.030, 1.930e-9
-0.028, 1.942e-9
-0.026, 1.955e-9
-0.024, 1.966e-9
-0.022, 1.976e-9
-0.020, 1.989e-9
-0.018, 1.999e-9
-0.016, 2.011e-9
-0.014, 2.022e-9
-0.012, 2.036e-9
-0.010, 2.049e-9
-0.008, 2.059e-9
-0.006, 2.070e-9
-0.004, 2.081e-9
-0.002, 2.091e-9
0.000, 2.100e-9
0.002, 2.111e-9
0.004, 2.123e-9
0.006, 2.135e-9
0.008, 2.148e-9
0.010, 2.161e-9
0.012, 2.175e-9
0.014, 2.188e-9
0.016, 2.201e-9
0.018, 2.211e-9
0.020, 2.224e-9
0.022, 2.237e-9
0.024, 2.247e-9
0.026, 2.260e-9
0.028, 2.273e-9
0.030, 2.287e-9
0.032, 2.299e-9
0.034, 2.313e-9
0.036, 2.325e-9
0.038, 2.339e-9
0.040, 2.351e-9
0.042, 2.362e-9
0.044, 2.374e-9
0.046, 2.387e-9
0.048, 2.399e-9
0.050, 2.413e-9
0.052, 2.426e-9
0.054, 2.438e-9
0.056, 2.452e-9
0.058, 2.464e-9
0.060, 2.476e-9
0.062, 2.490e-9
0.064, 2.503e-9
0.066, 2.515e-9
0.068, 2.530e-9
0.070, 2.544e-9
0.072, 2.560e-9
0.074, 2.571e-9
0.076, 2.584e-9
0.078, 2.596e-9
0.080, 2.612e-9
0.082, 2.626e-9
0.084, 2.644e-9
0.086, 2.660e-9
0.088, 2.677e-9
0.090, 2.694e-9
0.092, 2.712e-9
0.094, 2.732e-9
0.096, 2.751e-9
0.098, 2.776e-9
0.100, 2.806e-9
0.102, 2.849e-9
0.104, 2.924e-9
0.106, 3.028e-9
0.108, 3.197e-9
0.110, 3.424e-9
0.112, 3.739e-9
0.114, 4.136e-9
0.116, 4.597e-9
0.118, 4.947e-9
0.120, 5.200e-9
0.122, 5.195e-9
0.124, 4.972e-9
0.126, 4.641e-9
0.128, 4.336e-9
0.130, 4.066e-9
0.132, 3.803e-9
0.134, 3.586e-9
0.136, 3.409e-9
0.138, 3.282e-9
0.140, 3.194e-9
0.142, 3.129e-9
0.144, 3.100e-9
0.146, 3.087e-9
0.148, 3.077e-9
0.150, 3.071e-9
0.152, 3.069e-9
0.154, 3.067e-9
0.156, 3.069e-9
0.158, 3.069e-9
0.160, 3.074e-9
0.162, 3.078e-9
0.164, 3.077e-9
0.166, 3.084e-9
0.168, 3.087e-9
0.170, 3.090e-9
0.172, 3.097e-9
0.174, 3.104e-9
0.176, 3.110e-9
0.178, 3.116e-9
0.180, 3.125e-9
0.182, 3.131e-9
0.184, 3.136e-9
0.186, 3.147e-9
0.188, 3.154e-9
0.190, 3.156e-9
0.192, 3.162e-9
0.194, 3.168e-9
0.196, 3.173e-9
0.198, 3.182e-9
0.200, 3.188e-9
0.202, 3.193e-9
0.204, 3.201e-9
0.206, 3.200e-9
0.208, 3.208e-9
0.210, 3.212e-9
0.212, 3.218e-9
0.214, 3.225e-9
0.216, 3.230e-9
0.218, 3.234e-9
0.220, 3.241e-9
0.222, 3.248e-9
0.224, 3.251e-9
0.226, 3.254e-9
0.228, 3.261e-9
0.230, 3.265e-9
0.232, 3.270e-9
0.234, 3.275e-9
0.236, 3.281e-9
0.238, 3.286e-9
0.240, 3.290e-9
0.242, 3.296e-9
0.244, 3.299e-9
0.246, 3.303e-9
0.248, 3.308e-9
0.250, 3.314e-9
0.252, 3.319e-9
0.254, 3.326e-9
0.256, 3.328e-9
0.258, 3.333e-9
0.260, 3.337e-9
0.262, 3.343e-9
0.264, 3.347e-9
0.266, 3.351e-9
0.268, 3.358e-9
0.270, 3.366e-9
0.272, 3.370e-9
0.274, 3.375e-9
0.276, 3.379e-9
0.278, 3.386e-9
0.280, 3.392e-9
0.282, 3.397e-9
0.284, 3.405e-9
0.286, 3.409e-9
0.288, 3.418e-9
0.290, 3.424e-9
0.292, 3.431e-9
0.294, 3.438e-9
0.296, 3.443e-9
0.298, 3.448e-9
0.300, 3.455e-9
0.302, 3.462e-9
0.304, 3.469e-9
0.306, 3.475e-9
0.308, 3.487e-9
0.310, 3.492e-9
0.312, 3.498e-9
0.314, 3.504e-9
0.316, 3.513e-9
0.318, 3.520e-9
0.320, 3.529e-9
0.322, 3.535e-9
0.324, 3.542e-9
0.326, 3.551e-9
0.328, 3.557e-9
0.330, 3.564e-9
0.332, 3.573e-9
0.334, 3.580e-9
0.336, 3.587e-9
0.338, 3.594e-9
0.340, 3.602e-9
0.342, 3.613e-9
0.344, 3.621e-9
0.346, 3.631e-9
0.348, 3.642e-9
0.350, 3.653e-9
0.352, 3.663e-9
0.354, 3.673e-9
0.356, 3.681e-9
0.358, 3.691e-9
0.360, 3.699e-9
0.362, 3.707e-9
0.364, 3.718e-9
0.366, 3.730e-9
0.368, 3.739e-9
0.370, 3.748e-9
0.372, 3.756e-9
0.374, 3.767e-9
0.376, 3.776e-9
0.378, 3.787e-9
0.380, 3.797e-9
0.382, 3.804e-9
0.384, 3.812e-9
0.386, 3.822e-9
0.388, 3.830e-9
0.390, 3.843e-9
0.392, 3.855e-9
0.394, 3.865e-9
0.396, 3.876e-9
0.398, 3.888e-9
0.400, 3.900e-9
0.402, 3.910e-9
0.404, 3.921e-9
0.406, 3.931e-9
0.408, 3.942e-9
0.410, 3.948e-9
0.412, 3.962e-9
0.414, 3.974e-9
0.416, 3.985e-9
0.418, 3.998e-9
0.420, 4.012e-9
0.422, 4.024e-9
0.424, 4.034e-9
0.426, 4.045e-9
0.428, 4.056e-9
0.430, 4.066e-9
0.432, 4.078e-9
0.434, 4.090e-9
0.436, 4.102e-9
0.438, 4.118e-9
0.440, 4.130e-9
0.442, 4.149e-9
0.444, 4.163e-9
0.446, 4.176e-9
0.448, 4.190e-9
0.450, 4.201e-9
0.452, 4.215e-9
0.454, 4.230e-9
0.456, 4.244e-9
0.458, 4.256e-9
0.460, 4.269e-9
0.462, 4.279e-9
0.464, 4.293e-9
0.466, 4.306e-9
0.468, 4.319e-9
0.470, 4.334e-9
0.472, 4.346e-9
0.474, 4.359e-9
0.476, 4.375e-9
0.478, 4.391e-9
0.480, 4.404e-9
0.482, 4.417e-9
0.484, 4.433e-9
0.486, 4.449e-9
0.488, 4.464e-9
0.490, 4.478e-9
0.492, 4.495e-9
0.494, 4.511e-9
0.496, 4.525e-9
0.498, 4.541e-9
0.500, 4.519e-9
0.498, 4.249e-9
0.496, 4.082e-9
0.494, 3.964e-9
0.492, 3.859e-9
0.490, 3.769e-9
0.488, 3.678e-9
0.486, 3.592e-9
0.484, 3.521e-9
0.482, 3.450e-9
0.480, 3.377e-9
0.478, 3.315e-9
0.476, 3.256e-9
0.474, 3.196e-9
0.472, 3.132e-9
0.470, 3.080e-9
0.468, 3.031e-9
0.466, 2.978e-9
0.464, 2.931e-9
0.462, 2.883e-9
0.460, 2.840e-9
0.458, 2.797e-9
0.456, 2.755e-9
0.454, 2.711e-9
0.452, 2.666e-9
0.450, 2.624e-9
0.448, 2.588e-9
0.446, 2.552e-9
0.444, 2.516e-9
0.442, 2.478e-9
0.440, 2.443e-9
0.438, 2.410e-9
0.436, 2.374e-9
0.434, 2.342e-9
0.432, 2.307e-9
0.430, 2.273e-9
0.428, 2.242e-9
0.426, 2.211e-9
0.424, 2.181e-9
0.422, 2.148e-9
0.420, 2.117e-9
0.418, 2.092e-9
0.416, 2.064e-9
0.414, 2.035e-9
0.412, 2.007e-9
0.410, 1.982e-9
0.408, 1.959e-9
0.406, 1.928e-9
0.404, 1.901e-9
0.402, 1.873e-9
0.400, 1.846e-9
0.398, 1.820e-9
0.396, 1.794e-9
0.394, 1.767e-9
0.392, 1.743e-9
0.390, 1.719e-9
0.388, 1.694e-9
0.386, 1.669e-9
0.384, 1.643e-9
0.382, 1.620e-9
0.380, 1.598e-9
0.378, 1.575e-9
0.376, 1.552e-9
0.374, 1.531e-9
0.372, 1.508e-9
0.370, 1.486e-9
0.368, 1.464e-9
0.366, 1.441e-9
0.364, 1.418e-9
0.362, 1.395e-9
0.360, 1.375e-9
0.358, 1.353e-9
0.356, 1.329e-9
0.354, 1.308e-9
0.352, 1.288e-9
0.350, 1.267e-9
0.348, 1.248e-9
0.346, 1.227e-9
0.344, 1.207e-9
0.342, 1.185e-9
0.340, 1.163e-9
0.338, 1.143e-9
0.336, 1.125e-9
0.334, 1.108e-9
0.332, 1.090e-9
0.330, 1.070e-9
0.328, 1.052e-9
0.326, 1.032e-9
0.324, 1.014e-9
0.322, 9.963e-10
0.320, 9.777e-10
0.318, 9.592e-10
0.316, 9.396e-10
0.314, 9.207e-10
0.312, 9.013e-10
0.310, 8.826e-10
0.308, 8.652e-10
0.306, 8.438e-10
0.304, 8.275e-10
0.302, 8.091e-10
0.300, 7.917e-10
0.298, 7.748e-10
0.296, 7.579e-10
0.294, 7.426e-10
0.292, 7.243e-10
0.290, 7.054e-10
0.288, 6.861e-10
0.286, 6.690e-10
0.284, 6.519e-10
0.282, 6.367e-10
0.280, 6.215e-10
0.278, 6.060e-10
0.276, 5.886e-10
0.274, 5.716e-10
0.272, 5.550e-10
0.270, 5.378e-10
0.268, 5.219e-10
0.266, 5.044e-10
0.264, 4.864e-10
0.262, 4.661e-10
0.260, 4.453e-10
0.258, 4.286e-10
0.256, 4.120e-10
0.254, 3.960e-10
0.252, 3.826e-10
0.250, 3.664e-10
0.248, 3.503e-10
0.246, 3.348e-10
0.244, 3.201e-10
0.242, 3.041e-10
0.240, 2.883e-10
0.238, 2.723e-10
0.236, 2.574e-10
0.234, 2.397e-10
0.232, 2.237e-10
0.230, 2.076e-10
0.228, 1.883e-10
0.226, 1.729e-10
0.224, 1.586e-10
0.222, 1.440e-10
0.220, 1.298e-10
0.218, 1.144e-10
0.216, 9.869e-11
0.214, 8.173e-11
0.212, 6.769e-11
0.210, 5.044e-11
0.208, 3.650e-11
0.206, 2.168e-11
0.204, 8.033e-12
0.202, -1.185e-11
0.200, -3.145e-11
0.198, -4.899e-11
0.196, -6.625e-11
0.194, -8.263e-11
0.192, -9.666e-11
0.190, -1.118e-10
0.188, -1.291e-10
0.186, -1.459e-10
0.184, -1.629e-10
0.182, -1.785e-10
0.180, -1.943e-10
0.178, -2.119e-10
0.176, -2.282e-10
0.174, -2.450e-10
0.172, -2.668e-10
0.170, -2.848e-10
0.168, -3.033e-10
0.166, -3.199e-10
0.164, -3.361e-10
0.162, -3.517e-10
0.160, -3.689e-10
0.158, -3.865e-10
0.156, -4.048e-10
0.154, -4.230e-10
0.152, -4.395e-10
0.150, -4.570e-10
0.148, -4.758e-10
0.146, -4.961e-10
0.144, -5.179e-10
0.142, -5.391e-10
0.140, -5.571e-10
0.138, -5.751e-10
0.136, -5.928e-10
0.134, -6.132e-10
0.132, -6.325e-10
0.130, -6.513e-10
0.128, -6.704e-10
0.126, -6.907e-10
0.124, -7.094e-10
0.122, -7.303e-10
0.120, -7.503e-10
0.118, -7.725e-10
0.116, -7.950e-10
0.114, -8.126e-10
0.112, -8.300e-10
0.110, -8.499e-10
0.108, -8.697e-10
0.106, -8.897e-10
0.104, -9.117e-10
0.102, -9.380e-10
0.100, -9.574e-10
0.098, -9.772e-10
0.096, -1.001e-9
0.094, -1.024e-9
0.092, -1.047e-9
0.090, -1.068e-9
0.088, -1.087e-9
0.086, -1.108e-9
0.084, -1.129e-9
0.082, -1.151e-9
0.080, -1.171e-9
0.078, -1.194e-9
0.076, -1.214e-9
0.074, -1.237e-9
0.072, -1.260e-9
0.070, -1.283e-9
0.068, -1.304e-9
0.066, -1.322e-9
0.064, -1.343e-9
0.062, -1.363e-9
0.060, -1.384e-9
0.058, -1.404e-9
0.056, -1.425e-9
0.054, -1.445e-9
0.052, -1.467e-9
0.050, -1.489e-9
0.048, -1.511e-9
0.046, -1.531e-9
0.044, -1.552e-9
0.042, -1.569e-9
0.040, -1.588e-9
0.038, -1.605e-9
0.036, -1.624e-9
0.034, -1.643e-9
0.032, -1.662e-9
0.030, -1.679e-9
0.028, -1.696e-9
0.026, -1.715e-9
0.024, -1.735e-9
0.022, -1.753e-9
0.020, -1.773e-9
0.018, -1.789e-9
0.016, -1.803e-9
0.014, -1.821e-9
0.012, -1.837e-9
0.010, -1.854e-9
0.008, -1.870e-9
0.006, -1.888e-9
0.004, -1.903e-9
0.002, -1.918e-9
-0.000, -1.927e-9
-0.002, -1.943e-9
-0.004, -1.959e-9
-0.006, -1.973e-9
-0.008, -1.990e-9
-0.010, -2.005e-9
-0.012, -2.020e-9
-0.014, -2.034e-9
-0.016, -2.049e-9
-0.018, -2.066e-9
-0.020, -2.086e-9
-0.022, -2.108e-9
-0.024, -2.133e-9
-0.026, -2.162e-9
-0.028, -2.188e-9
-0.030, -2.218e-9
-0.032, -2.250e-9
-0.034, -2.280e-9
-0.036, -2.311e-9
-0.038, -2.348e-9
-0.040, -2.374e-9
-0.042, -2.397e-9
-0.044, -2.427e-9
-0.046, -2.457e-9
-0.048, -2.487e-9
-0.050, -2.524e-9
-0.052, -2.549e-9
-0.054, -2.569e-9
-0.056, -2.567e-9
-0.058, -2.599e-9
-0.060, -2.583e-9
-0.062, -2.593e-9
-0.064, -2.578e-9
-0.066, -2.570e-9
-0.068, -2.547e-9
-0.070, -2.521e-9
-0.072, -2.510e-9
-0.074, -2.495e-9
-0.076, -2.464e-9
-0.078, -2.453e-9
-0.080, -2.437e-9
-0.082, -2.417e-9
-0.084, -2.425e-9
-0.086, -2.422e-9
-0.088, -2.417e-9
-0.090, -2.404e-9
-0.092, -2.406e-9
-0.094, -2.406e-9
-0.096, -2.418e-9
-0.098, -2.409e-9
-0.100, -2.418e-9
-0.102, -2.418e-9
-0.104, -2.418e-9
-0.106, -2.424e-9
-0.108, -2.427e-9
-0.110, -2.426e-9
-0.112, -2.443e-9
-0.114, -2.436e-9
-0.116, -2.456e-9
-0.118, -2.443e-9
-0.120, -2.439e-9
-0.122, -2.443e-9
-0.124, -2.447e-9
-0.126, -2.461e-9
-0.128, -2.461e-9
-0.130, -2.470e-9
-0.132, -2.475e-9
-0.134, -2.485e-9
-0.136, -2.484e-9
-0.138, -2.489e-9
-0.140, -2.500e-9
-0.142, -2.498e-9
-0.144, -2.501e-9
-0.146, -2.505e-9
-0.148, -2.507e-9
-0.150, -2.515e-9
-0.152, -2.521e-9
-0.154, -2.521e-9
-0.156, -2.534e-9
-0.158, -2.536e-9
-0.160, -2.542e-9
-0.162, -2.540e-9
-0.164, -2.551e-9
-0.166, -2.557e-9
-0.168, -2.557e-9
-0.170, -2.565e-9
-0.172, -2.572e-9
-0.174, -2.574e-9
-0.176, -2.578e-9
-0.178, -2.584e-9
-0.180, -2.590e-9
-0.182, -2.598e-9
-0.184, -2.607e-9
-0.186, -2.609e-9
-0.188, -2.614e-9
-0.190, -2.623e-9
-0.192, -2.622e-9
-0.194, -2.628e-9
-0.196, -2.636e-9
-0.198, -2.642e-9
-0.200, -2.645e-9
-0.202, -2.651e-9
-0.204, -2.657e-9
-0.206, -2.657e-9
-0.208, -2.664e-9
-0.210, -2.668e-9
-0.212, -2.677e-9
-0.214, -2.682e-9
-0.216, -2.688e-9
-0.218, -2.693e-9
-0.220, -2.702e-9
-0.222, -2.709e-9
-0.224, -2.715e-9
-0.226, -2.722e-9
-0.228, -2.726e-9
-0.230, -2.733e-9
-0.232, -2.738e-9
-0.234, -2.746e-9
-0.236, -2.754e-9
-0.238, -2.757e-9
-0.240, -2.763e-9
-0.242, -2.769e-9
-0.244, -2.773e-9
-0.246, -2.777e-9
-0.248, -2.781e-9
-0.250, -2.787e-9
-0.252, -2.793e-9
-0.254, -2.799e-9
-0.256, -2.804e-9
-0.258, -2.809e-9
-0.260, -2.815e-9
-0.262, -2.821e-9
-0.264, -2.827e-9
-0.266, -2.833e-9
-0.268, -2.838e-9
-0.270, -2.843e-9
-0.272, -2.847e-9
-0.274, -2.852e-9
-0.276, -2.857e-9
-0.278, -2.863e-9
-0.280, -2.866e-9
-0.282, -2.871e-9
-0.284, -2.876e-9
-0.286, -2.880e-9
-0.288, -2.886e-9
-0.290, -2.889e-9
-0.292, -2.894e-9
-0.294, -2.899e-9
-0.296, -2.903e-9
-0.298, -2.906e-9
-0.300, -2.909e-9
-0.302, -2.914e-9
-0.304, -2.917e-9
-0.306, -2.921e-9
-0.308, -2.934e-9
-0.310, -2.932e-9
-0.312, -2.936e-9
-0.314, -2.941e-9
-0.316, -2.945e-9
-0.318, -2.946e-9
-0.320, -2.949e-9
-0.322, -2.953e-9
-0.324, -2.956e-9
-0.326, -2.960e-9
-0.328, -2.965e-9
-0.330, -2.967e-9
-0.332, -2.971e-9
-0.334, -2.975e-9
-0.336, -2.977e-9
-0.338, -2.981e-9
-0.340, -2.986e-9
-0.342, -2.989e-9
-0.344, -2.991e-9
-0.346, -2.995e-9
-0.348, -2.997e-9
-0.350, -3.000e-9
-0.352, -3.004e-9
-0.354, -3.006e-9
-0.356, -3.010e-9
-0.358, -3.012e-9
-0.360, -3.015e-9
-0.362, -3.017e-9
-0.364, -3.022e-9
-0.366, -3.026e-9
-0.368, -3.029e-9
-0.370, -3.031e-9
-0.372, -3.034e-9
-0.374, -3.040e-9
-0.376, -3.041e-9
-0.378, -3.043e-9
-0.380, -3.047e-9
-0.382, -3.049e-9
-0.384, -3.052e-9
-0.386, -3.056e-9
-0.388, -3.059e-9
-0.390, -3.063e-9
-0.392, -3.065e-9
-0.394, -3.069e-9
-0.396, -3.072e-9
-0.398, -3.077e-9
-0.400, -3.079e-9
-0.402, -3.084e-9
-0.404, -3.089e-9
-0.406, -3.091e-9
-0.408, -3.094e-9
-0.410, -3.100e-9
-0.412, -3.102e-9
-0.414, -3.105e-9
-0.416, -3.108e-9
-0.418, -3.113e-9
-0.420, -3.116e-9
-0.422, -3.119e-9
-0.424, -3.122e-9
-0.426, -3.127e-9
-0.428, -3.131e-9
-0.430, -3.134e-9
-0.432, -3.137e-9
-0.434, -3.141e-9
-0.436, -3.145e-9
-0.438, -3.148e-9
-0.440, -3.152e-9
-0.442, -3.156e-9
-0.444, -3.161e-9
-0.446, -3.165e-9
-0.448, -3.169e-9
-0.450, -3.172e-9
-0.452, -3.177e-9
-0.454, -3.183e-9
-0.456, -3.188e-9
-0.458, -3.192e-9
-0.460, -3.198e-9
-0.462, -3.202e-9
-0.464, -3.206e-9
-0.466, -3.212e-9
-0.468, -3.218e-9
-0.470, -3.223e-9
-0.472, -3.229e-9
-0.474, -3.230e-9
-0.476, -3.236e-9
-0.478, -3.240e-9
-0.480, -3.244e-9
-0.482, -3.249e-9
-0.484, -3.253e-9
-0.486, -3.255e-9
-0.488, -3.259e-9
-0.490, -3.264e-9
-0.492, -3.271e-9
-0.494, -3.276e-9
-0.496, -3.279e-9
-0.498, -3.283e-9
-0.499, -3.287e-9