File: Supplementary Fig 4/Fig S4e Surface CV +DCMU/CV SURFACE INCUBATED 10.txt
Mar. 7, 2025   14:43:55
Cyclic Voltammetry
File: cv surface incubated 10.bin
Data Source:  Experiment
Instrument Model:  CHI920C
Ref. Electrode:
Header:
Note:

Init E (V) = -0.5
High E (V) = 0.5
Low E (V) = -0.5
Init P/N = P
Scan Rate (V/s) = 0.05
Segment = 2
Sample Interval (V) = 0.001
Quiet Time (sec) = 10
Sensitivity (A/V) = 1e-8

Results:

Channel 1:
Segment 1:

Segment 2:

Potential/V, Current/A

-0.500, -2.134e-9
-0.498, -1.987e-9
-0.496, -1.932e-9
-0.494, -1.889e-9
-0.492, -1.851e-9
-0.490, -1.818e-9
-0.488, -1.784e-9
-0.486, -1.754e-9
-0.484, -1.723e-9
-0.482, -1.695e-9
-0.480, -1.669e-9
-0.478, -1.642e-9
-0.476, -1.617e-9
-0.474, -1.592e-9
-0.472, -1.568e-9
-0.470, -1.545e-9
-0.468, -1.522e-9
-0.466, -1.499e-9
-0.464, -1.477e-9
-0.462, -1.454e-9
-0.460, -1.432e-9
-0.458, -1.410e-9
-0.456, -1.388e-9
-0.454, -1.367e-9
-0.452, -1.345e-9
-0.450, -1.325e-9
-0.448, -1.305e-9
-0.446, -1.286e-9
-0.444, -1.266e-9
-0.442, -1.248e-9
-0.440, -1.227e-9
-0.438, -1.210e-9
-0.436, -1.190e-9
-0.434, -1.171e-9
-0.432, -1.153e-9
-0.430, -1.131e-9
-0.428, -1.117e-9
-0.426, -1.099e-9
-0.424, -1.082e-9
-0.422, -1.063e-9
-0.420, -1.041e-9
-0.418, -1.022e-9
-0.416, -1.001e-9
-0.414, -9.858e-10
-0.412, -9.716e-10
-0.410, -9.563e-10
-0.408, -9.429e-10
-0.406, -9.273e-10
-0.404, -9.100e-10
-0.402, -8.914e-10
-0.400, -8.732e-10
-0.398, -8.584e-10
-0.396, -8.433e-10
-0.394, -8.304e-10
-0.392, -8.159e-10
-0.390, -7.998e-10
-0.388, -7.844e-10
-0.386, -7.665e-10
-0.384, -7.517e-10
-0.382, -7.356e-10
-0.380, -7.208e-10
-0.378, -7.033e-10
-0.376, -6.878e-10
-0.374, -6.721e-10
-0.372, -6.541e-10
-0.370, -6.376e-10
-0.368, -6.200e-10
-0.366, -6.025e-10
-0.364, -5.861e-10
-0.362, -5.713e-10
-0.360, -5.554e-10
-0.358, -5.441e-10
-0.356, -5.274e-10
-0.354, -5.106e-10
-0.352, -4.971e-10
-0.350, -4.864e-10
-0.348, -4.731e-10
-0.346, -4.532e-10
-0.344, -4.316e-10
-0.342, -4.147e-10
-0.340, -4.071e-10
-0.338, -4.045e-10
-0.336, -3.940e-10
-0.334, -3.771e-10
-0.332, -3.596e-10
-0.330, -3.414e-10
-0.328, -3.278e-10
-0.326, -3.191e-10
-0.324, -3.086e-10
-0.322, -2.964e-10
-0.320, -2.823e-10
-0.318, -2.681e-10
-0.316, -2.552e-10
-0.314, -2.432e-10
-0.312, -2.331e-10
-0.310, -2.213e-10
-0.308, -2.086e-10
-0.306, -1.937e-10
-0.304, -1.809e-10
-0.302, -1.676e-10
-0.300, -1.541e-10
-0.298, -1.415e-10
-0.296, -1.304e-10
-0.294, -1.192e-10
-0.292, -1.060e-10
-0.290, -9.292e-11
-0.288, -7.885e-11
-0.286, -6.541e-11
-0.284, -5.233e-11
-0.282, -4.100e-11
-0.280, -3.088e-11
-0.278, -2.222e-11
-0.276, -1.421e-11
-0.274, -3.525e-12
-0.272, 5.863e-12
-0.270, 1.897e-11
-0.268, 3.338e-11
-0.266, 4.893e-11
-0.264, 6.361e-11
-0.262, 7.648e-11
-0.260, 8.972e-11
-0.258, 9.867e-11
-0.256, 1.098e-10
-0.254, 1.211e-10
-0.252, 1.325e-10
-0.250, 1.427e-10
-0.248, 1.542e-10
-0.246, 1.653e-10
-0.244, 1.782e-10
-0.242, 1.881e-10
-0.240, 1.986e-10
-0.238, 2.122e-10
-0.236, 2.231e-10
-0.234, 2.339e-10
-0.232, 2.450e-10
-0.230, 2.562e-10
-0.228, 2.698e-10
-0.226, 2.807e-10
-0.224, 2.919e-10
-0.222, 3.012e-10
-0.220, 3.114e-10
-0.218, 3.228e-10
-0.216, 3.341e-10
-0.214, 3.453e-10
-0.212, 3.574e-10
-0.210, 3.690e-10
-0.208, 3.795e-10
-0.206, 3.899e-10
-0.204, 3.969e-10
-0.202, 4.080e-10
-0.200, 4.162e-10
-0.198, 4.256e-10
-0.196, 4.353e-10
-0.194, 4.473e-10
-0.192, 4.590e-10
-0.190, 4.726e-10
-0.188, 4.829e-10
-0.186, 4.959e-10
-0.184, 5.052e-10
-0.182, 5.144e-10
-0.180, 5.245e-10
-0.178, 5.346e-10
-0.176, 5.485e-10
-0.174, 5.630e-10
-0.172, 5.772e-10
-0.170, 5.872e-10
-0.168, 5.984e-10
-0.166, 6.075e-10
-0.164, 6.197e-10
-0.162, 6.268e-10
-0.160, 6.311e-10
-0.158, 6.263e-10
-0.156, 6.185e-10
-0.154, 6.153e-10
-0.152, 6.246e-10
-0.150, 6.285e-10
-0.148, 6.432e-10
-0.146, 6.502e-10
-0.144, 6.829e-10
-0.142, 6.955e-10
-0.140, 7.095e-10
-0.138, 7.148e-10
-0.136, 7.271e-10
-0.134, 7.382e-10
-0.132, 7.565e-10
-0.130, 7.754e-10
-0.128, 7.955e-10
-0.126, 8.074e-10
-0.124, 8.212e-10
-0.122, 8.348e-10
-0.120, 8.481e-10
-0.118, 8.572e-10
-0.116, 8.686e-10
-0.114, 8.784e-10
-0.112, 8.873e-10
-0.110, 8.976e-10
-0.108, 9.107e-10
-0.106, 9.193e-10
-0.104, 9.283e-10
-0.102, 9.424e-10
-0.100, 9.513e-10
-0.098, 9.592e-10
-0.096, 9.651e-10
-0.094, 9.743e-10
-0.092, 9.824e-10
-0.090, 9.895e-10
-0.088, 1.001e-9
-0.086, 1.010e-9
-0.084, 1.022e-9
-0.082, 1.034e-9
-0.080, 1.043e-9
-0.078, 1.055e-9
-0.076, 1.059e-9
-0.074, 1.069e-9
-0.072, 1.078e-9
-0.070, 1.087e-9
-0.068, 1.096e-9
-0.066, 1.104e-9
-0.064, 1.114e-9
-0.062, 1.130e-9
-0.060, 1.145e-9
-0.058, 1.157e-9
-0.056, 1.171e-9
-0.054, 1.183e-9
-0.052, 1.196e-9
-0.050, 1.207e-9
-0.048, 1.218e-9
-0.046, 1.228e-9
-0.044, 1.239e-9
-0.042, 1.247e-9
-0.040, 1.258e-9
-0.038, 1.269e-9
-0.036, 1.281e-9
-0.034, 1.289e-9
-0.032, 1.299e-9
-0.030, 1.312e-9
-0.028, 1.323e-9
-0.026, 1.334e-9
-0.024, 1.344e-9
-0.022, 1.353e-9
-0.020, 1.364e-9
-0.018, 1.376e-9
-0.016, 1.384e-9
-0.014, 1.395e-9
-0.012, 1.405e-9
-0.010, 1.416e-9
-0.008, 1.427e-9
-0.006, 1.436e-9
-0.004, 1.444e-9
-0.002, 1.454e-9
0.000, 1.459e-9
0.002, 1.472e-9
0.004, 1.486e-9
0.006, 1.499e-9
0.008, 1.512e-9
0.010, 1.524e-9
0.012, 1.536e-9
0.014, 1.539e-9
0.016, 1.546e-9
0.018, 1.559e-9
0.020, 1.570e-9
0.022, 1.581e-9
0.024, 1.588e-9
0.026, 1.596e-9
0.028, 1.607e-9
0.030, 1.622e-9
0.032, 1.634e-9
0.034, 1.645e-9
0.036, 1.658e-9
0.038, 1.659e-9
0.040, 1.668e-9
0.042, 1.683e-9
0.044, 1.693e-9
0.046, 1.703e-9
0.048, 1.713e-9
0.050, 1.720e-9
0.052, 1.732e-9
0.054, 1.742e-9
0.056, 1.753e-9
0.058, 1.764e-9
0.060, 1.775e-9
0.062, 1.785e-9
0.064, 1.797e-9
0.066, 1.806e-9
0.068, 1.818e-9
0.070, 1.827e-9
0.072, 1.838e-9
0.074, 1.849e-9
0.076, 1.860e-9
0.078, 1.870e-9
0.080, 1.884e-9
0.082, 1.900e-9
0.084, 1.907e-9
0.086, 1.912e-9
0.088, 1.916e-9
0.090, 1.923e-9
0.092, 1.939e-9
0.094, 1.959e-9
0.096, 1.974e-9
0.098, 1.988e-9
0.100, 2.002e-9
0.102, 2.013e-9
0.104, 2.028e-9
0.106, 2.047e-9
0.108, 2.049e-9
0.110, 2.069e-9
0.112, 2.075e-9
0.114, 2.081e-9
0.116, 2.083e-9
0.118, 2.087e-9
0.120, 2.093e-9
0.122, 2.105e-9
0.124, 2.118e-9
0.126, 2.132e-9
0.128, 2.146e-9
0.130, 2.162e-9
0.132, 2.175e-9
0.134, 2.186e-9
0.136, 2.199e-9
0.138, 2.212e-9
0.140, 2.228e-9
0.142, 2.239e-9
0.144, 2.258e-9
0.146, 2.270e-9
0.148, 2.283e-9
0.150, 2.297e-9
0.152, 2.314e-9
0.154, 2.325e-9
0.156, 2.342e-9
0.158, 2.355e-9
0.160, 2.371e-9
0.162, 2.386e-9
0.164, 2.405e-9
0.166, 2.416e-9
0.168, 2.417e-9
0.170, 2.424e-9
0.172, 2.438e-9
0.174, 2.452e-9
0.176, 2.463e-9
0.178, 2.478e-9
0.180, 2.501e-9
0.182, 2.525e-9
0.184, 2.538e-9
0.186, 2.547e-9
0.188, 2.556e-9
0.190, 2.563e-9
0.192, 2.578e-9
0.194, 2.599e-9
0.196, 2.612e-9
0.198, 2.630e-9
0.200, 2.649e-9
0.202, 2.666e-9
0.204, 2.682e-9
0.206, 2.693e-9
0.208, 2.710e-9
0.210, 2.723e-9
0.212, 2.735e-9
0.214, 2.752e-9
0.216, 2.774e-9
0.218, 2.791e-9
0.220, 2.807e-9
0.222, 2.813e-9
0.224, 2.826e-9
0.226, 2.847e-9
0.228, 2.851e-9
0.230, 2.858e-9
0.232, 2.867e-9
0.234, 2.876e-9
0.236, 2.897e-9
0.238, 2.912e-9
0.240, 2.922e-9
0.242, 2.923e-9
0.244, 2.914e-9
0.246, 2.933e-9
0.248, 2.887e-9
0.250, 2.940e-9
0.252, 2.976e-9
0.254, 3.014e-9
0.256, 3.012e-9
0.258, 3.004e-9
0.260, 3.032e-9
0.262, 3.045e-9
0.264, 3.058e-9
0.266, 3.056e-9
0.268, 3.067e-9
0.270, 3.088e-9
0.272, 3.086e-9
0.274, 3.109e-9
0.276, 3.128e-9
0.278, 3.142e-9
0.280, 3.145e-9
0.282, 3.148e-9
0.284, 3.172e-9
0.286, 3.176e-9
0.288, 3.173e-9
0.290, 3.169e-9
0.292, 3.191e-9
0.294, 3.211e-9
0.296, 3.224e-9
0.298, 3.234e-9
0.300, 3.244e-9
0.302, 3.259e-9
0.304, 3.276e-9
0.306, 3.299e-9
0.308, 3.332e-9
0.310, 3.325e-9
0.312, 3.329e-9
0.314, 3.317e-9
0.316, 3.320e-9
0.318, 3.342e-9
0.320, 3.343e-9
0.322, 3.344e-9
0.324, 3.358e-9
0.326, 3.379e-9
0.328, 3.393e-9
0.330, 3.396e-9
0.332, 3.407e-9
0.334, 3.419e-9
0.336, 3.433e-9
0.338, 3.448e-9
0.340, 3.459e-9
0.342, 3.470e-9
0.344, 3.481e-9
0.346, 3.494e-9
0.348, 3.491e-9
0.350, 3.508e-9
0.352, 3.503e-9
0.354, 3.515e-9
0.356, 3.526e-9
0.358, 3.540e-9
0.360, 3.555e-9
0.362, 3.560e-9
0.364, 3.556e-9
0.366, 3.572e-9
0.368, 3.585e-9
0.370, 3.598e-9
0.372, 3.606e-9
0.374, 3.617e-9
0.376, 3.627e-9
0.378, 3.638e-9
0.380, 3.647e-9
0.382, 3.657e-9
0.384, 3.668e-9
0.386, 3.679e-9
0.388, 3.688e-9
0.390, 3.700e-9
0.392, 3.710e-9
0.394, 3.722e-9
0.396, 3.729e-9
0.398, 3.737e-9
0.400, 3.748e-9
0.402, 3.760e-9
0.404, 3.772e-9
0.406, 3.784e-9
0.408, 3.794e-9
0.410, 3.797e-9
0.412, 3.813e-9
0.414, 3.825e-9
0.416, 3.837e-9
0.418, 3.849e-9
0.420, 3.863e-9
0.422, 3.875e-9
0.424, 3.886e-9
0.426, 3.901e-9
0.428, 3.902e-9
0.430, 3.919e-9
0.432, 3.929e-9
0.434, 3.937e-9
0.436, 3.947e-9
0.438, 3.956e-9
0.440, 3.971e-9
0.442, 3.987e-9
0.444, 3.996e-9
0.446, 4.007e-9
0.448, 4.015e-9
0.450, 4.026e-9
0.452, 4.039e-9
0.454, 4.054e-9
0.456, 4.066e-9
0.458, 4.077e-9
0.460, 4.090e-9
0.462, 4.100e-9
0.464, 4.113e-9
0.466, 4.127e-9
0.468, 4.143e-9
0.470, 4.154e-9
0.472, 4.166e-9
0.474, 4.179e-9
0.476, 4.195e-9
0.478, 4.208e-9
0.480, 4.221e-9
0.482, 4.232e-9
0.484, 4.252e-9
0.486, 4.270e-9
0.488, 4.276e-9
0.490, 4.290e-9
0.492, 4.305e-9
0.494, 4.319e-9
0.496, 4.332e-9
0.498, 4.344e-9
0.500, 4.314e-9
0.498, 4.008e-9
0.496, 3.873e-9
0.494, 3.766e-9
0.492, 3.673e-9
0.490, 3.588e-9
0.488, 3.510e-9
0.486, 3.437e-9
0.484, 3.367e-9
0.482, 3.305e-9
0.480, 3.248e-9
0.478, 3.185e-9
0.476, 3.128e-9
0.474, 3.079e-9
0.472, 3.030e-9
0.470, 2.975e-9
0.468, 2.920e-9
0.466, 2.874e-9
0.464, 2.838e-9
0.462, 2.794e-9
0.460, 2.750e-9
0.458, 2.709e-9
0.456, 2.666e-9
0.454, 2.625e-9
0.452, 2.579e-9
0.450, 2.541e-9
0.448, 2.502e-9
0.446, 2.470e-9
0.444, 2.433e-9
0.442, 2.397e-9
0.440, 2.358e-9
0.438, 2.324e-9
0.436, 2.285e-9
0.434, 2.251e-9
0.432, 2.214e-9
0.430, 2.180e-9
0.428, 2.141e-9
0.426, 2.106e-9
0.424, 2.079e-9
0.422, 2.050e-9
0.420, 2.019e-9
0.418, 1.986e-9
0.416, 1.956e-9
0.414, 1.928e-9
0.412, 1.898e-9
0.410, 1.869e-9
0.408, 1.843e-9
0.406, 1.816e-9
0.404, 1.787e-9
0.402, 1.765e-9
0.400, 1.737e-9
0.398, 1.708e-9
0.396, 1.680e-9
0.394, 1.655e-9
0.392, 1.628e-9
0.390, 1.601e-9
0.388, 1.574e-9
0.386, 1.550e-9
0.384, 1.526e-9
0.382, 1.497e-9
0.380, 1.471e-9
0.378, 1.445e-9
0.376, 1.420e-9
0.374, 1.392e-9
0.372, 1.360e-9
0.370, 1.341e-9
0.368, 1.325e-9
0.366, 1.302e-9
0.364, 1.271e-9
0.362, 1.243e-9
0.360, 1.216e-9
0.358, 1.202e-9
0.356, 1.182e-9
0.354, 1.156e-9
0.352, 1.136e-9
0.350, 1.115e-9
0.348, 1.101e-9
0.346, 1.082e-9
0.344, 1.057e-9
0.342, 1.029e-9
0.340, 1.003e-9
0.338, 1.008e-9
0.336, 9.708e-10
0.334, 9.488e-10
0.332, 9.140e-10
0.330, 8.885e-10
0.328, 8.650e-10
0.326, 8.466e-10
0.324, 8.246e-10
0.322, 7.799e-10
0.320, 7.463e-10
0.318, 7.609e-10
0.316, 7.297e-10
0.314, 6.900e-10
0.312, 6.722e-10
0.310, 6.383e-10
0.308, 6.402e-10
0.306, 5.857e-10
0.304, 6.087e-10
0.302, 5.826e-10
0.300, 5.470e-10
0.298, 5.171e-10
0.296, 4.960e-10
0.294, 4.943e-10
0.292, 4.594e-10
0.290, 4.637e-10
0.288, 4.467e-10
0.286, 4.206e-10
0.284, 3.998e-10
0.282, 3.801e-10
0.280, 3.622e-10
0.278, 3.429e-10
0.276, 3.261e-10
0.274, 3.169e-10
0.272, 3.025e-10
0.270, 2.857e-10
0.268, 2.669e-10
0.266, 2.510e-10
0.264, 2.361e-10
0.262, 2.186e-10
0.260, 2.051e-10
0.258, 1.921e-10
0.256, 1.777e-10
0.254, 1.667e-10
0.252, 1.548e-10
0.250, 1.417e-10
0.248, 1.254e-10
0.246, 1.132e-10
0.244, 9.931e-11
0.242, 8.557e-11
0.240, 7.119e-11
0.238, 5.773e-11
0.236, 4.549e-11
0.234, 2.851e-11
0.232, 1.824e-11
0.230, 1.134e-11
0.228, 3.377e-12
0.226, -9.618e-12
0.224, -2.543e-11
0.222, -3.671e-11
0.220, -4.449e-11
0.218, -5.639e-11
0.216, -6.392e-11
0.214, -6.961e-11
0.212, -9.933e-11
0.210, -1.042e-10
0.208, -1.165e-10
0.206, -1.251e-10
0.204, -1.346e-10
0.202, -1.472e-10
0.200, -1.627e-10
0.198, -1.756e-10
0.196, -1.852e-10
0.194, -1.920e-10
0.192, -2.001e-10
0.190, -2.093e-10
0.188, -2.185e-10
0.186, -2.260e-10
0.184, -2.337e-10
0.182, -2.438e-10
0.180, -2.503e-10
0.178, -2.579e-10
0.176, -2.641e-10
0.174, -2.726e-10
0.172, -2.820e-10
0.170, -2.900e-10
0.168, -2.976e-10
0.166, -3.064e-10
0.164, -3.171e-10
0.162, -3.264e-10
0.160, -3.352e-10
0.158, -3.446e-10
0.156, -3.524e-10
0.154, -3.607e-10
0.152, -3.694e-10
0.150, -3.780e-10
0.148, -3.877e-10
0.146, -3.980e-10
0.144, -4.053e-10
0.142, -4.141e-10
0.140, -4.205e-10
0.138, -4.311e-10
0.136, -4.380e-10
0.134, -4.475e-10
0.132, -4.560e-10
0.130, -4.635e-10
0.128, -4.704e-10
0.126, -4.772e-10
0.124, -4.874e-10
0.122, -4.979e-10
0.120, -5.071e-10
0.118, -5.160e-10
0.116, -5.260e-10
0.114, -5.381e-10
0.112, -5.491e-10
0.110, -5.604e-10
0.108, -5.617e-10
0.106, -5.701e-10
0.104, -5.844e-10
0.102, -6.018e-10
0.100, -6.071e-10
0.098, -6.176e-10
0.096, -6.252e-10
0.094, -6.313e-10
0.092, -6.391e-10
0.090, -6.506e-10
0.088, -6.618e-10
0.086, -6.760e-10
0.084, -6.906e-10
0.082, -6.935e-10
0.080, -6.990e-10
0.078, -7.153e-10
0.076, -7.306e-10
0.074, -7.425e-10
0.072, -7.550e-10
0.070, -7.644e-10
0.068, -7.669e-10
0.066, -7.722e-10
0.064, -7.892e-10
0.062, -8.064e-10
0.060, -8.182e-10
0.058, -8.269e-10
0.056, -8.370e-10
0.054, -8.482e-10
0.052, -8.600e-10
0.050, -8.706e-10
0.048, -8.854e-10
0.046, -8.959e-10
0.044, -9.093e-10
0.042, -9.200e-10
0.040, -9.317e-10
0.038, -9.435e-10
0.036, -9.563e-10
0.034, -9.683e-10
0.032, -9.812e-10
0.030, -9.941e-10
0.028, -1.006e-9
0.026, -1.019e-9
0.024, -1.030e-9
0.022, -1.043e-9
0.020, -1.055e-9
0.018, -1.069e-9
0.016, -1.083e-9
0.014, -1.097e-9
0.012, -1.111e-9
0.010, -1.123e-9
0.008, -1.137e-9
0.006, -1.152e-9
0.004, -1.166e-9
0.002, -1.179e-9
-0.000, -1.188e-9
-0.002, -1.205e-9
-0.004, -1.220e-9
-0.006, -1.234e-9
-0.008, -1.249e-9
-0.010, -1.261e-9
-0.012, -1.278e-9
-0.014, -1.291e-9
-0.016, -1.305e-9
-0.018, -1.320e-9
-0.020, -1.333e-9
-0.022, -1.350e-9
-0.024, -1.363e-9
-0.026, -1.377e-9
-0.028, -1.392e-9
-0.030, -1.408e-9
-0.032, -1.422e-9
-0.034, -1.440e-9
-0.036, -1.455e-9
-0.038, -1.472e-9
-0.040, -1.487e-9
-0.042, -1.505e-9
-0.044, -1.527e-9
-0.046, -1.541e-9
-0.048, -1.553e-9
-0.050, -1.563e-9
-0.052, -1.570e-9
-0.054, -1.593e-9
-0.056, -1.619e-9
-0.058, -1.621e-9
-0.060, -1.614e-9
-0.062, -1.621e-9
-0.064, -1.633e-9
-0.066, -1.646e-9
-0.068, -1.660e-9
-0.070, -1.673e-9
-0.072, -1.687e-9
-0.074, -1.702e-9
-0.076, -1.711e-9
-0.078, -1.724e-9
-0.080, -1.737e-9
-0.082, -1.750e-9
-0.084, -1.767e-9
-0.086, -1.778e-9
-0.088, -1.791e-9
-0.090, -1.805e-9
-0.092, -1.820e-9
-0.094, -1.835e-9
-0.096, -1.850e-9
-0.098, -1.862e-9
-0.100, -1.873e-9
-0.102, -1.891e-9
-0.104, -1.903e-9
-0.106, -1.913e-9
-0.108, -1.925e-9
-0.110, -1.937e-9
-0.112, -1.950e-9
-0.114, -1.964e-9
-0.116, -1.975e-9
-0.118, -1.988e-9
-0.120, -2.000e-9
-0.122, -2.019e-9
-0.124, -2.026e-9
-0.126, -2.034e-9
-0.128, -2.044e-9
-0.130, -2.058e-9
-0.132, -2.071e-9
-0.134, -2.083e-9
-0.136, -2.097e-9
-0.138, -2.106e-9
-0.140, -2.118e-9
-0.142, -2.128e-9
-0.144, -2.139e-9
-0.146, -2.149e-9
-0.148, -2.161e-9
-0.150, -2.171e-9
-0.152, -2.183e-9
-0.154, -2.196e-9
-0.156, -2.206e-9
-0.158, -2.218e-9
-0.160, -2.232e-9
-0.162, -2.247e-9
-0.164, -2.266e-9
-0.166, -2.288e-9
-0.168, -2.304e-9
-0.170, -2.322e-9
-0.172, -2.337e-9
-0.174, -2.345e-9
-0.176, -2.352e-9
-0.178, -2.361e-9
-0.180, -2.370e-9
-0.182, -2.383e-9
-0.184, -2.397e-9
-0.186, -2.399e-9
-0.188, -2.407e-9
-0.190, -2.402e-9
-0.192, -2.406e-9
-0.194, -2.424e-9
-0.196, -2.443e-9
-0.198, -2.449e-9
-0.200, -2.464e-9
-0.202, -2.475e-9
-0.204, -2.486e-9
-0.206, -2.489e-9
-0.208, -2.498e-9
-0.210, -2.508e-9
-0.212, -2.518e-9
-0.214, -2.536e-9
-0.216, -2.551e-9
-0.218, -2.562e-9
-0.220, -2.575e-9
-0.222, -2.586e-9
-0.224, -2.593e-9
-0.226, -2.600e-9
-0.228, -2.609e-9
-0.230, -2.622e-9
-0.232, -2.635e-9
-0.234, -2.650e-9
-0.236, -2.663e-9
-0.238, -2.677e-9
-0.240, -2.686e-9
-0.242, -2.697e-9
-0.244, -2.706e-9
-0.246, -2.710e-9
-0.248, -2.715e-9
-0.250, -2.727e-9
-0.252, -2.750e-9
-0.254, -2.774e-9
-0.256, -2.776e-9
-0.258, -2.781e-9
-0.260, -2.787e-9
-0.262, -2.794e-9
-0.264, -2.802e-9
-0.266, -2.815e-9
-0.268, -2.830e-9
-0.270, -2.838e-9
-0.272, -2.848e-9
-0.274, -2.856e-9
-0.276, -2.864e-9
-0.278, -2.875e-9
-0.280, -2.884e-9
-0.282, -2.895e-9
-0.284, -2.907e-9
-0.286, -2.916e-9
-0.288, -2.926e-9
-0.290, -2.935e-9
-0.292, -2.946e-9
-0.294, -2.956e-9
-0.296, -2.966e-9
-0.298, -2.976e-9
-0.300, -2.989e-9
-0.302, -2.999e-9
-0.304, -3.009e-9
-0.306, -3.018e-9
-0.308, -3.033e-9
-0.310, -3.041e-9
-0.312, -3.050e-9
-0.314, -3.060e-9
-0.316, -3.071e-9
-0.318, -3.080e-9
-0.320, -3.090e-9
-0.322, -3.100e-9
-0.324, -3.111e-9
-0.326, -3.122e-9
-0.328, -3.132e-9
-0.330, -3.142e-9
-0.332, -3.151e-9
-0.334, -3.163e-9
-0.336, -3.173e-9
-0.338, -3.183e-9
-0.340, -3.192e-9
-0.342, -3.202e-9
-0.344, -3.214e-9
-0.346, -3.224e-9
-0.348, -3.234e-9
-0.350, -3.243e-9
-0.352, -3.253e-9
-0.354, -3.265e-9
-0.356, -3.277e-9
-0.358, -3.290e-9
-0.360, -3.300e-9
-0.362, -3.309e-9
-0.364, -3.321e-9
-0.366, -3.329e-9
-0.368, -3.341e-9
-0.370, -3.354e-9
-0.372, -3.364e-9
-0.374, -3.378e-9
-0.376, -3.389e-9
-0.378, -3.400e-9
-0.380, -3.409e-9
-0.382, -3.421e-9
-0.384, -3.431e-9
-0.386, -3.442e-9
-0.388, -3.454e-9
-0.390, -3.465e-9
-0.392, -3.477e-9
-0.394, -3.486e-9
-0.396, -3.497e-9
-0.398, -3.507e-9
-0.400, -3.519e-9
-0.402, -3.529e-9
-0.404, -3.541e-9
-0.406, -3.553e-9
-0.408, -3.566e-9
-0.410, -3.578e-9
-0.412, -3.589e-9
-0.414, -3.600e-9
-0.416, -3.611e-9
-0.418, -3.624e-9
-0.420, -3.633e-9
-0.422, -3.645e-9
-0.424, -3.656e-9
-0.426, -3.667e-9
-0.428, -3.678e-9
-0.430, -3.690e-9
-0.432, -3.701e-9
-0.434, -3.714e-9
-0.436, -3.724e-9
-0.438, -3.736e-9
-0.440, -3.747e-9
-0.442, -3.760e-9
-0.444, -3.774e-9
-0.446, -3.776e-9
-0.448, -3.785e-9
-0.450, -3.803e-9
-0.452, -3.818e-9
-0.454, -3.833e-9
-0.456, -3.846e-9
-0.458, -3.857e-9
-0.460, -3.868e-9
-0.462, -3.872e-9
-0.464, -3.884e-9
-0.466, -3.907e-9
-0.468, -3.927e-9
-0.470, -3.939e-9
-0.472, -3.948e-9
-0.474, -3.960e-9
-0.476, -3.973e-9
-0.478, -3.986e-9
-0.480, -4.003e-9
-0.482, -4.020e-9
-0.484, -4.033e-9
-0.486, -4.047e-9
-0.488, -4.060e-9
-0.490, -4.075e-9
-0.492, -4.089e-9
-0.494, -4.101e-9
-0.496, -4.115e-9
-0.498, -4.130e-9
-0.499, -4.137e-9