File: Supplementary Fig 4/Fig S4e Surface CV +DCMU/CV SURFACE INCUBATED 6.txt
Mar. 7, 2025   14:39:18
Cyclic Voltammetry
File: cv surface incubated 6.bin
Data Source:  Experiment
Instrument Model:  CHI920C
Ref. Electrode:
Header:
Note:

Init E (V) = -0.5
High E (V) = 0.5
Low E (V) = -0.5
Init P/N = P
Scan Rate (V/s) = 0.05
Segment = 2
Sample Interval (V) = 0.001
Quiet Time (sec) = 10
Sensitivity (A/V) = 1e-8

Results:

Channel 1:
Segment 1:

Segment 2:

Potential/V, Current/A

-0.500, -1.977e-9
-0.498, -1.833e-9
-0.496, -1.776e-9
-0.494, -1.731e-9
-0.492, -1.692e-9
-0.490, -1.657e-9
-0.488, -1.625e-9
-0.486, -1.595e-9
-0.484, -1.564e-9
-0.482, -1.537e-9
-0.480, -1.510e-9
-0.478, -1.483e-9
-0.476, -1.458e-9
-0.474, -1.434e-9
-0.472, -1.407e-9
-0.470, -1.385e-9
-0.468, -1.362e-9
-0.466, -1.338e-9
-0.464, -1.316e-9
-0.462, -1.294e-9
-0.460, -1.273e-9
-0.458, -1.250e-9
-0.456, -1.229e-9
-0.454, -1.208e-9
-0.452, -1.188e-9
-0.450, -1.167e-9
-0.448, -1.147e-9
-0.446, -1.128e-9
-0.444, -1.108e-9
-0.442, -1.088e-9
-0.440, -1.068e-9
-0.438, -1.050e-9
-0.436, -1.030e-9
-0.434, -1.011e-9
-0.432, -9.918e-10
-0.430, -9.737e-10
-0.428, -9.555e-10
-0.426, -9.368e-10
-0.424, -9.190e-10
-0.422, -9.026e-10
-0.420, -8.829e-10
-0.418, -8.655e-10
-0.416, -8.473e-10
-0.414, -8.306e-10
-0.412, -8.148e-10
-0.410, -7.977e-10
-0.408, -7.806e-10
-0.406, -7.651e-10
-0.404, -7.477e-10
-0.402, -7.311e-10
-0.400, -7.152e-10
-0.398, -6.988e-10
-0.396, -6.838e-10
-0.394, -6.680e-10
-0.392, -6.514e-10
-0.390, -6.345e-10
-0.388, -6.190e-10
-0.386, -6.040e-10
-0.384, -5.902e-10
-0.382, -5.718e-10
-0.380, -5.577e-10
-0.378, -5.421e-10
-0.376, -5.268e-10
-0.374, -5.118e-10
-0.372, -4.957e-10
-0.370, -4.808e-10
-0.368, -4.664e-10
-0.366, -4.517e-10
-0.364, -4.364e-10
-0.362, -4.209e-10
-0.360, -4.074e-10
-0.358, -3.930e-10
-0.356, -3.780e-10
-0.354, -3.651e-10
-0.352, -3.505e-10
-0.350, -3.377e-10
-0.348, -3.239e-10
-0.346, -3.099e-10
-0.344, -2.959e-10
-0.342, -2.828e-10
-0.340, -2.677e-10
-0.338, -2.546e-10
-0.336, -2.401e-10
-0.334, -2.289e-10
-0.332, -2.137e-10
-0.330, -1.996e-10
-0.328, -1.865e-10
-0.326, -1.722e-10
-0.324, -1.602e-10
-0.322, -1.465e-10
-0.320, -1.342e-10
-0.318, -1.207e-10
-0.316, -1.090e-10
-0.314, -9.567e-11
-0.312, -8.268e-11
-0.310, -7.100e-11
-0.308, -5.697e-11
-0.306, -4.146e-11
-0.304, -3.183e-11
-0.302, -2.010e-11
-0.300, -7.132e-12
-0.298, 6.330e-12
-0.296, 1.801e-11
-0.294, 2.971e-11
-0.292, 4.190e-11
-0.290, 5.395e-11
-0.288, 6.685e-11
-0.286, 7.898e-11
-0.284, 9.019e-11
-0.282, 1.025e-10
-0.280, 1.133e-10
-0.278, 1.258e-10
-0.276, 1.380e-10
-0.274, 1.505e-10
-0.272, 1.619e-10
-0.270, 1.731e-10
-0.268, 1.834e-10
-0.266, 1.944e-10
-0.264, 2.056e-10
-0.262, 2.177e-10
-0.260, 2.290e-10
-0.258, 2.393e-10
-0.256, 2.509e-10
-0.254, 2.623e-10
-0.252, 2.746e-10
-0.250, 2.859e-10
-0.248, 2.971e-10
-0.246, 3.063e-10
-0.244, 3.187e-10
-0.242, 3.286e-10
-0.240, 3.388e-10
-0.238, 3.502e-10
-0.236, 3.604e-10
-0.234, 3.718e-10
-0.232, 3.815e-10
-0.230, 3.928e-10
-0.228, 4.026e-10
-0.226, 4.149e-10
-0.224, 4.248e-10
-0.222, 4.350e-10
-0.220, 4.450e-10
-0.218, 4.563e-10
-0.216, 4.673e-10
-0.214, 4.759e-10
-0.212, 4.880e-10
-0.210, 4.988e-10
-0.208, 5.079e-10
-0.206, 5.185e-10
-0.204, 5.260e-10
-0.202, 5.386e-10
-0.200, 5.483e-10
-0.198, 5.583e-10
-0.196, 5.702e-10
-0.194, 5.785e-10
-0.192, 5.905e-10
-0.190, 5.986e-10
-0.188, 6.093e-10
-0.186, 6.200e-10
-0.184, 6.303e-10
-0.182, 6.397e-10
-0.180, 6.490e-10
-0.178, 6.595e-10
-0.176, 6.685e-10
-0.174, 6.794e-10
-0.172, 6.885e-10
-0.170, 6.992e-10
-0.168, 7.087e-10
-0.166, 7.179e-10
-0.164, 7.279e-10
-0.162, 7.381e-10
-0.160, 7.487e-10
-0.158, 7.583e-10
-0.156, 7.670e-10
-0.154, 7.778e-10
-0.152, 7.870e-10
-0.150, 7.954e-10
-0.148, 8.057e-10
-0.146, 8.164e-10
-0.144, 8.266e-10
-0.142, 8.345e-10
-0.140, 8.446e-10
-0.138, 8.546e-10
-0.136, 8.633e-10
-0.134, 8.729e-10
-0.132, 8.830e-10
-0.130, 8.929e-10
-0.128, 9.022e-10
-0.126, 9.122e-10
-0.124, 9.205e-10
-0.122, 9.318e-10
-0.120, 9.407e-10
-0.118, 9.504e-10
-0.116, 9.596e-10
-0.114, 9.692e-10
-0.112, 9.778e-10
-0.110, 9.887e-10
-0.108, 9.993e-10
-0.106, 1.008e-9
-0.104, 1.020e-9
-0.102, 1.030e-9
-0.100, 1.039e-9
-0.098, 1.048e-9
-0.096, 1.058e-9
-0.094, 1.066e-9
-0.092, 1.076e-9
-0.090, 1.085e-9
-0.088, 1.095e-9
-0.086, 1.105e-9
-0.084, 1.115e-9
-0.082, 1.125e-9
-0.080, 1.134e-9
-0.078, 1.144e-9
-0.076, 1.152e-9
-0.074, 1.163e-9
-0.072, 1.171e-9
-0.070, 1.183e-9
-0.068, 1.191e-9
-0.066, 1.202e-9
-0.064, 1.211e-9
-0.062, 1.221e-9
-0.060, 1.230e-9
-0.058, 1.240e-9
-0.056, 1.249e-9
-0.054, 1.259e-9
-0.052, 1.269e-9
-0.050, 1.278e-9
-0.048, 1.288e-9
-0.046, 1.297e-9
-0.044, 1.308e-9
-0.042, 1.317e-9
-0.040, 1.328e-9
-0.038, 1.336e-9
-0.036, 1.348e-9
-0.034, 1.356e-9
-0.032, 1.367e-9
-0.030, 1.377e-9
-0.028, 1.386e-9
-0.026, 1.396e-9
-0.024, 1.406e-9
-0.022, 1.415e-9
-0.020, 1.427e-9
-0.018, 1.436e-9
-0.016, 1.445e-9
-0.014, 1.456e-9
-0.012, 1.464e-9
-0.010, 1.476e-9
-0.008, 1.485e-9
-0.006, 1.495e-9
-0.004, 1.506e-9
-0.002, 1.515e-9
0.000, 1.521e-9
0.002, 1.532e-9
0.004, 1.543e-9
0.006, 1.554e-9
0.008, 1.563e-9
0.010, 1.572e-9
0.012, 1.582e-9
0.014, 1.594e-9
0.016, 1.602e-9
0.018, 1.614e-9
0.020, 1.623e-9
0.022, 1.634e-9
0.024, 1.643e-9
0.026, 1.654e-9
0.028, 1.663e-9
0.030, 1.675e-9
0.032, 1.684e-9
0.034, 1.696e-9
0.036, 1.705e-9
0.038, 1.716e-9
0.040, 1.725e-9
0.042, 1.735e-9
0.044, 1.746e-9
0.046, 1.755e-9
0.048, 1.766e-9
0.050, 1.776e-9
0.052, 1.785e-9
0.054, 1.795e-9
0.056, 1.806e-9
0.058, 1.816e-9
0.060, 1.826e-9
0.062, 1.836e-9
0.064, 1.847e-9
0.066, 1.857e-9
0.068, 1.867e-9
0.070, 1.880e-9
0.072, 1.890e-9
0.074, 1.900e-9
0.076, 1.911e-9
0.078, 1.922e-9
0.080, 1.934e-9
0.082, 1.944e-9
0.084, 1.956e-9
0.086, 1.966e-9
0.088, 1.977e-9
0.090, 1.988e-9
0.092, 2.002e-9
0.094, 2.012e-9
0.096, 2.026e-9
0.098, 2.037e-9
0.100, 2.051e-9
0.102, 2.066e-9
0.104, 2.083e-9
0.106, 2.095e-9
0.108, 2.108e-9
0.110, 2.118e-9
0.112, 2.126e-9
0.114, 2.141e-9
0.116, 2.144e-9
0.118, 2.156e-9
0.120, 2.163e-9
0.122, 2.175e-9
0.124, 2.186e-9
0.126, 2.199e-9
0.128, 2.213e-9
0.130, 2.225e-9
0.132, 2.238e-9
0.134, 2.252e-9
0.136, 2.265e-9
0.138, 2.278e-9
0.140, 2.292e-9
0.142, 2.304e-9
0.144, 2.318e-9
0.146, 2.331e-9
0.148, 2.347e-9
0.150, 2.361e-9
0.152, 2.375e-9
0.154, 2.388e-9
0.156, 2.403e-9
0.158, 2.417e-9
0.160, 2.432e-9
0.162, 2.447e-9
0.164, 2.461e-9
0.166, 2.479e-9
0.168, 2.491e-9
0.170, 2.505e-9
0.172, 2.520e-9
0.174, 2.536e-9
0.176, 2.551e-9
0.178, 2.566e-9
0.180, 2.581e-9
0.182, 2.596e-9
0.184, 2.613e-9
0.186, 2.627e-9
0.188, 2.643e-9
0.190, 2.656e-9
0.192, 2.670e-9
0.194, 2.684e-9
0.196, 2.699e-9
0.198, 2.715e-9
0.200, 2.728e-9
0.202, 2.742e-9
0.204, 2.756e-9
0.206, 2.767e-9
0.208, 2.778e-9
0.210, 2.794e-9
0.212, 2.807e-9
0.214, 2.821e-9
0.216, 2.835e-9
0.218, 2.848e-9
0.220, 2.863e-9
0.222, 2.876e-9
0.224, 2.889e-9
0.226, 2.902e-9
0.228, 2.916e-9
0.230, 2.928e-9
0.232, 2.942e-9
0.234, 2.954e-9
0.236, 2.968e-9
0.238, 2.981e-9
0.240, 2.994e-9
0.242, 3.006e-9
0.244, 3.018e-9
0.246, 3.031e-9
0.248, 3.045e-9
0.250, 3.060e-9
0.252, 3.073e-9
0.254, 3.086e-9
0.256, 3.097e-9
0.258, 3.110e-9
0.260, 3.120e-9
0.262, 3.134e-9
0.264, 3.145e-9
0.266, 3.158e-9
0.268, 3.170e-9
0.270, 3.182e-9
0.272, 3.194e-9
0.274, 3.205e-9
0.276, 3.218e-9
0.278, 3.229e-9
0.280, 3.242e-9
0.282, 3.252e-9
0.284, 3.265e-9
0.286, 3.275e-9
0.288, 3.286e-9
0.290, 3.297e-9
0.292, 3.308e-9
0.294, 3.319e-9
0.296, 3.331e-9
0.298, 3.343e-9
0.300, 3.353e-9
0.302, 3.364e-9
0.304, 3.373e-9
0.306, 3.384e-9
0.308, 3.401e-9
0.310, 3.409e-9
0.312, 3.419e-9
0.314, 3.430e-9
0.316, 3.441e-9
0.318, 3.451e-9
0.320, 3.463e-9
0.322, 3.472e-9
0.324, 3.481e-9
0.326, 3.491e-9
0.328, 3.502e-9
0.330, 3.510e-9
0.332, 3.523e-9
0.334, 3.533e-9
0.336, 3.544e-9
0.338, 3.555e-9
0.340, 3.566e-9
0.342, 3.576e-9
0.344, 3.585e-9
0.346, 3.595e-9
0.348, 3.606e-9
0.350, 3.619e-9
0.352, 3.629e-9
0.354, 3.639e-9
0.356, 3.650e-9
0.358, 3.661e-9
0.360, 3.671e-9
0.362, 3.681e-9
0.364, 3.692e-9
0.366, 3.702e-9
0.368, 3.712e-9
0.370, 3.723e-9
0.372, 3.734e-9
0.374, 3.744e-9
0.376, 3.756e-9
0.378, 3.767e-9
0.380, 3.777e-9
0.382, 3.788e-9
0.384, 3.798e-9
0.386, 3.809e-9
0.388, 3.821e-9
0.390, 3.833e-9
0.392, 3.845e-9
0.394, 3.855e-9
0.396, 3.867e-9
0.398, 3.879e-9
0.400, 3.892e-9
0.402, 3.904e-9
0.404, 3.916e-9
0.406, 3.931e-9
0.408, 3.940e-9
0.410, 3.945e-9
0.412, 3.960e-9
0.414, 3.975e-9
0.416, 3.987e-9
0.418, 4.000e-9
0.420, 4.010e-9
0.422, 4.024e-9
0.424, 4.035e-9
0.426, 4.048e-9
0.428, 4.058e-9
0.430, 4.074e-9
0.432, 4.084e-9
0.434, 4.096e-9
0.436, 4.108e-9
0.438, 4.118e-9
0.440, 4.129e-9
0.442, 4.142e-9
0.444, 4.153e-9
0.446, 4.165e-9
0.448, 4.176e-9
0.450, 4.187e-9
0.452, 4.198e-9
0.454, 4.209e-9
0.456, 4.221e-9
0.458, 4.233e-9
0.460, 4.244e-9
0.462, 4.257e-9
0.464, 4.269e-9
0.466, 4.281e-9
0.468, 4.293e-9
0.470, 4.304e-9
0.472, 4.318e-9
0.474, 4.330e-9
0.476, 4.344e-9
0.478, 4.357e-9
0.480, 4.369e-9
0.482, 4.384e-9
0.484, 4.399e-9
0.486, 4.411e-9
0.488, 4.425e-9
0.490, 4.440e-9
0.492, 4.457e-9
0.494, 4.471e-9
0.496, 4.487e-9
0.498, 4.503e-9
0.500, 4.469e-9
0.498, 4.161e-9
0.496, 4.015e-9
0.494, 3.904e-9
0.492, 3.807e-9
0.490, 3.717e-9
0.488, 3.635e-9
0.486, 3.561e-9
0.484, 3.489e-9
0.482, 3.421e-9
0.480, 3.356e-9
0.478, 3.295e-9
0.476, 3.238e-9
0.474, 3.181e-9
0.472, 3.126e-9
0.470, 3.074e-9
0.468, 3.023e-9
0.466, 2.973e-9
0.464, 2.925e-9
0.462, 2.878e-9
0.460, 2.834e-9
0.458, 2.787e-9
0.456, 2.744e-9
0.454, 2.701e-9
0.452, 2.660e-9
0.450, 2.619e-9
0.448, 2.579e-9
0.446, 2.541e-9
0.444, 2.502e-9
0.442, 2.464e-9
0.440, 2.425e-9
0.438, 2.390e-9
0.436, 2.351e-9
0.434, 2.313e-9
0.432, 2.281e-9
0.430, 2.251e-9
0.428, 2.218e-9
0.426, 2.185e-9
0.424, 2.150e-9
0.422, 2.114e-9
0.420, 2.079e-9
0.418, 2.048e-9
0.416, 2.018e-9
0.414, 1.988e-9
0.412, 1.955e-9
0.410, 1.924e-9
0.408, 1.894e-9
0.406, 1.865e-9
0.404, 1.837e-9
0.402, 1.803e-9
0.400, 1.774e-9
0.398, 1.746e-9
0.396, 1.716e-9
0.394, 1.687e-9
0.392, 1.660e-9
0.390, 1.632e-9
0.388, 1.603e-9
0.386, 1.575e-9
0.384, 1.546e-9
0.382, 1.519e-9
0.380, 1.493e-9
0.378, 1.467e-9
0.376, 1.439e-9
0.374, 1.414e-9
0.372, 1.387e-9
0.370, 1.362e-9
0.368, 1.335e-9
0.366, 1.310e-9
0.364, 1.283e-9
0.362, 1.260e-9
0.360, 1.234e-9
0.358, 1.209e-9
0.356, 1.185e-9
0.354, 1.160e-9
0.352, 1.136e-9
0.350, 1.111e-9
0.348, 1.086e-9
0.346, 1.062e-9
0.344, 1.039e-9
0.342, 1.014e-9
0.340, 9.925e-10
0.338, 9.716e-10
0.336, 9.471e-10
0.334, 9.226e-10
0.332, 8.998e-10
0.330, 8.732e-10
0.328, 8.548e-10
0.326, 8.302e-10
0.324, 8.002e-10
0.322, 7.840e-10
0.320, 7.644e-10
0.318, 7.421e-10
0.316, 7.211e-10
0.314, 6.998e-10
0.312, 6.779e-10
0.310, 6.570e-10
0.308, 6.353e-10
0.306, 6.111e-10
0.304, 5.925e-10
0.302, 5.712e-10
0.300, 5.499e-10
0.298, 5.312e-10
0.296, 5.115e-10
0.294, 4.925e-10
0.292, 4.720e-10
0.290, 4.533e-10
0.288, 4.349e-10
0.286, 4.170e-10
0.284, 3.980e-10
0.282, 3.785e-10
0.280, 3.593e-10
0.278, 3.433e-10
0.276, 3.248e-10
0.274, 3.064e-10
0.272, 2.898e-10
0.270, 2.719e-10
0.268, 2.543e-10
0.266, 2.346e-10
0.264, 2.193e-10
0.262, 2.034e-10
0.260, 1.887e-10
0.258, 1.716e-10
0.256, 1.547e-10
0.254, 1.384e-10
0.252, 1.248e-10
0.250, 1.090e-10
0.248, 9.469e-11
0.246, 7.966e-11
0.244, 6.541e-11
0.242, 5.148e-11
0.240, 3.813e-11
0.238, 2.514e-11
0.236, 1.185e-11
0.234, -1.994e-12
0.232, -1.595e-11
0.230, -2.664e-11
0.228, -3.952e-11
0.226, -5.241e-11
0.224, -6.453e-11
0.222, -7.619e-11
0.220, -8.892e-11
0.218, -1.028e-10
0.216, -1.140e-10
0.214, -1.252e-10
0.212, -1.365e-10
0.210, -1.476e-10
0.208, -1.577e-10
0.206, -1.668e-10
0.204, -1.745e-10
0.202, -1.877e-10
0.200, -1.974e-10
0.198, -2.069e-10
0.196, -2.178e-10
0.194, -2.273e-10
0.192, -2.369e-10
0.190, -2.469e-10
0.188, -2.559e-10
0.186, -2.663e-10
0.184, -2.748e-10
0.182, -2.838e-10
0.180, -2.945e-10
0.178, -3.026e-10
0.176, -3.107e-10
0.174, -3.193e-10
0.172, -3.305e-10
0.170, -3.391e-10
0.168, -3.465e-10
0.166, -3.543e-10
0.164, -3.637e-10
0.162, -3.730e-10
0.160, -3.823e-10
0.158, -3.910e-10
0.156, -3.991e-10
0.154, -4.079e-10
0.152, -4.163e-10
0.150, -4.245e-10
0.148, -4.333e-10
0.146, -4.426e-10
0.144, -4.498e-10
0.142, -4.597e-10
0.140, -4.667e-10
0.138, -4.776e-10
0.136, -4.867e-10
0.134, -4.944e-10
0.132, -5.023e-10
0.130, -5.121e-10
0.128, -5.236e-10
0.126, -5.305e-10
0.124, -5.356e-10
0.122, -5.429e-10
0.120, -5.542e-10
0.118, -5.657e-10
0.116, -5.770e-10
0.114, -5.851e-10
0.112, -5.921e-10
0.110, -6.024e-10
0.108, -6.144e-10
0.106, -6.263e-10
0.104, -6.331e-10
0.102, -6.460e-10
0.100, -6.536e-10
0.098, -6.633e-10
0.096, -6.726e-10
0.094, -6.825e-10
0.092, -6.927e-10
0.090, -7.020e-10
0.088, -7.101e-10
0.086, -7.186e-10
0.084, -7.300e-10
0.082, -7.400e-10
0.080, -7.506e-10
0.078, -7.616e-10
0.076, -7.701e-10
0.074, -7.811e-10
0.072, -7.940e-10
0.070, -8.063e-10
0.068, -8.173e-10
0.066, -8.278e-10
0.064, -8.356e-10
0.062, -8.468e-10
0.060, -8.583e-10
0.058, -8.697e-10
0.056, -8.805e-10
0.054, -8.908e-10
0.052, -9.032e-10
0.050, -9.146e-10
0.048, -9.259e-10
0.046, -9.365e-10
0.044, -9.495e-10
0.042, -9.607e-10
0.040, -9.734e-10
0.038, -9.851e-10
0.036, -9.981e-10
0.034, -1.009e-9
0.032, -1.020e-9
0.030, -1.032e-9
0.028, -1.042e-9
0.026, -1.055e-9
0.024, -1.068e-9
0.022, -1.080e-9
0.020, -1.091e-9
0.018, -1.105e-9
0.016, -1.116e-9
0.014, -1.130e-9
0.012, -1.142e-9
0.010, -1.156e-9
0.008, -1.168e-9
0.006, -1.180e-9
0.004, -1.192e-9
0.002, -1.204e-9
-0.000, -1.213e-9
-0.002, -1.227e-9
-0.004, -1.240e-9
-0.006, -1.254e-9
-0.008, -1.266e-9
-0.010, -1.280e-9
-0.012, -1.292e-9
-0.014, -1.307e-9
-0.016, -1.321e-9
-0.018, -1.335e-9
-0.020, -1.348e-9
-0.022, -1.360e-9
-0.024, -1.374e-9
-0.026, -1.388e-9
-0.028, -1.403e-9
-0.030, -1.413e-9
-0.032, -1.430e-9
-0.034, -1.445e-9
-0.036, -1.459e-9
-0.038, -1.470e-9
-0.040, -1.488e-9
-0.042, -1.504e-9
-0.044, -1.517e-9
-0.046, -1.536e-9
-0.048, -1.552e-9
-0.050, -1.567e-9
-0.052, -1.569e-9
-0.054, -1.571e-9
-0.056, -1.580e-9
-0.058, -1.597e-9
-0.060, -1.610e-9
-0.062, -1.618e-9
-0.064, -1.629e-9
-0.066, -1.640e-9
-0.068, -1.650e-9
-0.070, -1.663e-9
-0.072, -1.677e-9
-0.074, -1.692e-9
-0.076, -1.703e-9
-0.078, -1.715e-9
-0.080, -1.726e-9
-0.082, -1.737e-9
-0.084, -1.750e-9
-0.086, -1.765e-9
-0.088, -1.775e-9
-0.090, -1.784e-9
-0.092, -1.798e-9
-0.094, -1.809e-9
-0.096, -1.822e-9
-0.098, -1.833e-9
-0.100, -1.846e-9
-0.102, -1.861e-9
-0.104, -1.874e-9
-0.106, -1.882e-9
-0.108, -1.894e-9
-0.110, -1.907e-9
-0.112, -1.917e-9
-0.114, -1.928e-9
-0.116, -1.939e-9
-0.118, -1.950e-9
-0.120, -1.962e-9
-0.122, -1.973e-9
-0.124, -1.986e-9
-0.126, -2.019e-9
-0.128, -2.012e-9
-0.130, -2.019e-9
-0.132, -2.029e-9
-0.134, -2.041e-9
-0.136, -2.051e-9
-0.138, -2.062e-9
-0.140, -2.074e-9
-0.142, -2.083e-9
-0.144, -2.095e-9
-0.146, -2.105e-9
-0.148, -2.116e-9
-0.150, -2.127e-9
-0.152, -2.139e-9
-0.154, -2.151e-9
-0.156, -2.164e-9
-0.158, -2.173e-9
-0.160, -2.184e-9
-0.162, -2.193e-9
-0.164, -2.203e-9
-0.166, -2.215e-9
-0.168, -2.225e-9
-0.170, -2.238e-9
-0.172, -2.249e-9
-0.174, -2.261e-9
-0.176, -2.266e-9
-0.178, -2.278e-9
-0.180, -2.289e-9
-0.182, -2.302e-9
-0.184, -2.311e-9
-0.186, -2.321e-9
-0.188, -2.332e-9
-0.190, -2.342e-9
-0.192, -2.352e-9
-0.194, -2.363e-9
-0.196, -2.373e-9
-0.198, -2.384e-9
-0.200, -2.393e-9
-0.202, -2.403e-9
-0.204, -2.416e-9
-0.206, -2.423e-9
-0.208, -2.437e-9
-0.210, -2.447e-9
-0.212, -2.458e-9
-0.214, -2.469e-9
-0.216, -2.478e-9
-0.218, -2.488e-9
-0.220, -2.501e-9
-0.222, -2.511e-9
-0.224, -2.521e-9
-0.226, -2.532e-9
-0.228, -2.542e-9
-0.230, -2.553e-9
-0.232, -2.563e-9
-0.234, -2.568e-9
-0.236, -2.583e-9
-0.238, -2.593e-9
-0.240, -2.603e-9
-0.242, -2.614e-9
-0.244, -2.622e-9
-0.246, -2.632e-9
-0.248, -2.642e-9
-0.250, -2.652e-9
-0.252, -2.664e-9
-0.254, -2.673e-9
-0.256, -2.682e-9
-0.258, -2.693e-9
-0.260, -2.703e-9
-0.262, -2.713e-9
-0.264, -2.724e-9
-0.266, -2.734e-9
-0.268, -2.745e-9
-0.270, -2.755e-9
-0.272, -2.765e-9
-0.274, -2.777e-9
-0.276, -2.786e-9
-0.278, -2.797e-9
-0.280, -2.807e-9
-0.282, -2.816e-9
-0.284, -2.828e-9
-0.286, -2.838e-9
-0.288, -2.847e-9
-0.290, -2.856e-9
-0.292, -2.868e-9
-0.294, -2.878e-9
-0.296, -2.888e-9
-0.298, -2.896e-9
-0.300, -2.907e-9
-0.302, -2.917e-9
-0.304, -2.927e-9
-0.306, -2.936e-9
-0.308, -2.951e-9
-0.310, -2.956e-9
-0.312, -2.968e-9
-0.314, -2.977e-9
-0.316, -2.987e-9
-0.318, -2.997e-9
-0.320, -3.008e-9
-0.322, -3.019e-9
-0.324, -3.029e-9
-0.326, -3.040e-9
-0.328, -3.052e-9
-0.330, -3.062e-9
-0.332, -3.072e-9
-0.334, -3.083e-9
-0.336, -3.092e-9
-0.338, -3.103e-9
-0.340, -3.113e-9
-0.342, -3.124e-9
-0.344, -3.134e-9
-0.346, -3.143e-9
-0.348, -3.153e-9
-0.350, -3.168e-9
-0.352, -3.179e-9
-0.354, -3.188e-9
-0.356, -3.200e-9
-0.358, -3.209e-9
-0.360, -3.220e-9
-0.362, -3.235e-9
-0.364, -3.246e-9
-0.366, -3.256e-9
-0.368, -3.265e-9
-0.370, -3.272e-9
-0.372, -3.282e-9
-0.374, -3.293e-9
-0.376, -3.305e-9
-0.378, -3.317e-9
-0.380, -3.326e-9
-0.382, -3.338e-9
-0.384, -3.348e-9
-0.386, -3.360e-9
-0.388, -3.370e-9
-0.390, -3.382e-9
-0.392, -3.393e-9
-0.394, -3.405e-9
-0.396, -3.416e-9
-0.398, -3.427e-9
-0.400, -3.437e-9
-0.402, -3.448e-9
-0.404, -3.461e-9
-0.406, -3.471e-9
-0.408, -3.482e-9
-0.410, -3.494e-9
-0.412, -3.506e-9
-0.414, -3.516e-9
-0.416, -3.527e-9
-0.418, -3.539e-9
-0.420, -3.549e-9
-0.422, -3.564e-9
-0.424, -3.573e-9
-0.426, -3.583e-9
-0.428, -3.597e-9
-0.430, -3.609e-9
-0.432, -3.620e-9
-0.434, -3.632e-9
-0.436, -3.643e-9
-0.438, -3.656e-9
-0.440, -3.667e-9
-0.442, -3.678e-9
-0.444, -3.692e-9
-0.446, -3.703e-9
-0.448, -3.714e-9
-0.450, -3.726e-9
-0.452, -3.740e-9
-0.454, -3.752e-9
-0.456, -3.765e-9
-0.458, -3.777e-9
-0.460, -3.792e-9
-0.462, -3.804e-9
-0.464, -3.815e-9
-0.466, -3.829e-9
-0.468, -3.843e-9
-0.470, -3.855e-9
-0.472, -3.867e-9
-0.474, -3.882e-9
-0.476, -3.894e-9
-0.478, -3.909e-9
-0.480, -3.921e-9
-0.482, -3.937e-9
-0.484, -3.948e-9
-0.486, -3.963e-9
-0.488, -3.977e-9
-0.490, -3.991e-9
-0.492, -4.004e-9
-0.494, -4.018e-9
-0.496, -4.031e-9
-0.498, -4.046e-9
-0.499, -4.053e-9