File: Supplementary Fig 4/Fig S4e Surface CV +DCMU/CV SURFACE INCUBATED 1.txt
Mar. 7, 2025   14:31:41
Cyclic Voltammetry
File: cv surface incubated 1
Instrument Model:  CHI920C
Ref. Electrode:
Header:
Note:

Init E (V) = -0.5
High E (V) = 0.5
Low E (V) = -0.5
Init P/N = P
Scan Rate (V/s) = 0.05
Segment = 2
Sample Interval (V) = 0.001
Quiet Time (sec) = 10
Sensitivity (A/V) = 1e-8

Results:

Channel 1:
Segment 1:

Segment 2:

Potential/V, Current/A

-0.500, -2.306e-9
-0.498, -2.167e-9
-0.496, -2.108e-9
-0.494, -2.061e-9
-0.492, -2.020e-9
-0.490, -1.984e-9
-0.488, -1.951e-9
-0.486, -1.918e-9
-0.484, -1.887e-9
-0.482, -1.857e-9
-0.480, -1.829e-9
-0.478, -1.800e-9
-0.476, -1.774e-9
-0.474, -1.747e-9
-0.472, -1.722e-9
-0.470, -1.698e-9
-0.468, -1.672e-9
-0.466, -1.647e-9
-0.464, -1.623e-9
-0.462, -1.599e-9
-0.460, -1.576e-9
-0.458, -1.553e-9
-0.456, -1.529e-9
-0.454, -1.509e-9
-0.452, -1.488e-9
-0.450, -1.467e-9
-0.448, -1.445e-9
-0.446, -1.424e-9
-0.444, -1.403e-9
-0.442, -1.382e-9
-0.440, -1.361e-9
-0.438, -1.341e-9
-0.436, -1.320e-9
-0.434, -1.301e-9
-0.432, -1.281e-9
-0.430, -1.261e-9
-0.428, -1.240e-9
-0.426, -1.222e-9
-0.424, -1.202e-9
-0.422, -1.184e-9
-0.420, -1.164e-9
-0.418, -1.145e-9
-0.416, -1.127e-9
-0.414, -1.109e-9
-0.412, -1.091e-9
-0.410, -1.072e-9
-0.408, -1.054e-9
-0.406, -1.035e-9
-0.404, -1.018e-9
-0.402, -9.996e-10
-0.400, -9.833e-10
-0.398, -9.655e-10
-0.396, -9.477e-10
-0.394, -9.308e-10
-0.392, -9.138e-10
-0.390, -8.967e-10
-0.388, -8.779e-10
-0.386, -8.579e-10
-0.384, -8.461e-10
-0.382, -8.274e-10
-0.380, -8.073e-10
-0.378, -7.859e-10
-0.376, -7.729e-10
-0.374, -7.677e-10
-0.372, -7.504e-10
-0.370, -7.351e-10
-0.368, -7.195e-10
-0.366, -7.021e-10
-0.364, -6.816e-10
-0.362, -6.647e-10
-0.360, -6.495e-10
-0.358, -6.363e-10
-0.356, -6.184e-10
-0.354, -6.063e-10
-0.352, -5.924e-10
-0.350, -5.762e-10
-0.348, -5.616e-10
-0.346, -5.456e-10
-0.344, -5.262e-10
-0.342, -5.042e-10
-0.340, -4.847e-10
-0.338, -4.711e-10
-0.336, -4.645e-10
-0.334, -4.509e-10
-0.332, -4.397e-10
-0.330, -4.262e-10
-0.328, -4.128e-10
-0.326, -4.002e-10
-0.324, -3.839e-10
-0.322, -3.682e-10
-0.320, -3.532e-10
-0.318, -3.456e-10
-0.316, -3.301e-10
-0.314, -3.169e-10
-0.312, -3.053e-10
-0.310, -2.914e-10
-0.308, -2.656e-10
-0.306, -2.514e-10
-0.304, -2.440e-10
-0.302, -2.288e-10
-0.300, -2.148e-10
-0.298, -2.007e-10
-0.296, -1.896e-10
-0.294, -1.781e-10
-0.292, -1.644e-10
-0.290, -1.500e-10
-0.288, -1.367e-10
-0.286, -1.211e-10
-0.284, -1.088e-10
-0.282, -9.629e-11
-0.280, -8.355e-11
-0.278, -6.938e-11
-0.276, -5.639e-11
-0.274, -4.379e-11
-0.272, -3.304e-11
-0.270, -2.352e-11
-0.268, -9.510e-12
-0.266, 2.451e-12
-0.264, 1.617e-11
-0.262, 2.980e-11
-0.260, 4.304e-11
-0.258, 4.972e-11
-0.256, 6.388e-11
-0.254, 7.531e-11
-0.252, 9.000e-11
-0.250, 1.024e-10
-0.248, 1.143e-10
-0.246, 1.261e-10
-0.244, 1.410e-10
-0.242, 1.517e-10
-0.240, 1.616e-10
-0.238, 1.790e-10
-0.236, 1.948e-10
-0.234, 2.061e-10
-0.232, 2.144e-10
-0.230, 2.216e-10
-0.228, 2.301e-10
-0.226, 2.428e-10
-0.224, 2.562e-10
-0.222, 2.697e-10
-0.220, 2.781e-10
-0.218, 2.864e-10
-0.216, 2.956e-10
-0.214, 3.091e-10
-0.212, 3.226e-10
-0.210, 3.350e-10
-0.208, 3.479e-10
-0.206, 3.573e-10
-0.204, 3.643e-10
-0.202, 3.775e-10
-0.200, 3.898e-10
-0.198, 4.004e-10
-0.196, 4.115e-10
-0.194, 4.218e-10
-0.192, 4.347e-10
-0.190, 4.458e-10
-0.188, 4.571e-10
-0.186, 4.680e-10
-0.184, 4.756e-10
-0.182, 4.845e-10
-0.180, 4.959e-10
-0.178, 5.057e-10
-0.176, 5.161e-10
-0.174, 5.286e-10
-0.172, 5.383e-10
-0.170, 5.531e-10
-0.168, 5.648e-10
-0.166, 5.713e-10
-0.164, 5.811e-10
-0.162, 5.899e-10
-0.160, 6.008e-10
-0.158, 6.087e-10
-0.156, 6.181e-10
-0.154, 6.334e-10
-0.152, 6.459e-10
-0.150, 6.576e-10
-0.148, 6.661e-10
-0.146, 6.765e-10
-0.144, 6.845e-10
-0.142, 6.934e-10
-0.140, 7.035e-10
-0.138, 7.149e-10
-0.136, 7.234e-10
-0.134, 7.333e-10
-0.132, 7.434e-10
-0.130, 7.520e-10
-0.128, 7.629e-10
-0.126, 7.740e-10
-0.124, 7.851e-10
-0.122, 7.960e-10
-0.120, 8.065e-10
-0.118, 8.164e-10
-0.116, 8.271e-10
-0.114, 8.361e-10
-0.112, 8.460e-10
-0.110, 8.551e-10
-0.108, 8.657e-10
-0.106, 8.753e-10
-0.104, 8.852e-10
-0.102, 9.000e-10
-0.100, 9.064e-10
-0.098, 9.156e-10
-0.096, 9.259e-10
-0.094, 9.352e-10
-0.092, 9.427e-10
-0.090, 9.521e-10
-0.088, 9.616e-10
-0.086, 9.718e-10
-0.084, 9.837e-10
-0.082, 9.941e-10
-0.080, 1.005e-9
-0.078, 1.014e-9
-0.076, 1.024e-9
-0.074, 1.035e-9
-0.072, 1.046e-9
-0.070, 1.058e-9
-0.068, 1.066e-9
-0.066, 1.075e-9
-0.064, 1.084e-9
-0.062, 1.095e-9
-0.060, 1.104e-9
-0.058, 1.113e-9
-0.056, 1.123e-9
-0.054, 1.133e-9
-0.052, 1.145e-9
-0.050, 1.154e-9
-0.048, 1.163e-9
-0.046, 1.173e-9
-0.044, 1.183e-9
-0.042, 1.192e-9
-0.040, 1.203e-9
-0.038, 1.211e-9
-0.036, 1.222e-9
-0.034, 1.233e-9
-0.032, 1.244e-9
-0.030, 1.252e-9
-0.028, 1.264e-9
-0.026, 1.275e-9
-0.024, 1.285e-9
-0.022, 1.295e-9
-0.020, 1.306e-9
-0.018, 1.317e-9
-0.016, 1.327e-9
-0.014, 1.337e-9
-0.012, 1.347e-9
-0.010, 1.358e-9
-0.008, 1.369e-9
-0.006, 1.379e-9
-0.004, 1.389e-9
-0.002, 1.398e-9
0.000, 1.406e-9
0.002, 1.419e-9
0.004, 1.430e-9
0.006, 1.441e-9
0.008, 1.450e-9
0.010, 1.461e-9
0.012, 1.473e-9
0.014, 1.484e-9
0.016, 1.494e-9
0.018, 1.505e-9
0.020, 1.516e-9
0.022, 1.528e-9
0.024, 1.539e-9
0.026, 1.550e-9
0.028, 1.562e-9
0.030, 1.571e-9
0.032, 1.584e-9
0.034, 1.594e-9
0.036, 1.606e-9
0.038, 1.619e-9
0.040, 1.629e-9
0.042, 1.640e-9
0.044, 1.652e-9
0.046, 1.662e-9
0.048, 1.673e-9
0.050, 1.685e-9
0.052, 1.696e-9
0.054, 1.709e-9
0.056, 1.721e-9
0.058, 1.733e-9
0.060, 1.744e-9
0.062, 1.756e-9
0.064, 1.766e-9
0.066, 1.778e-9
0.068, 1.789e-9
0.070, 1.802e-9
0.072, 1.814e-9
0.074, 1.826e-9
0.076, 1.838e-9
0.078, 1.848e-9
0.080, 1.863e-9
0.082, 1.874e-9
0.084, 1.886e-9
0.086, 1.898e-9
0.088, 1.909e-9
0.090, 1.923e-9
0.092, 1.939e-9
0.094, 1.950e-9
0.096, 1.962e-9
0.098, 1.973e-9
0.100, 1.987e-9
0.102, 2.002e-9
0.104, 2.017e-9
0.106, 2.028e-9
0.108, 2.041e-9
0.110, 2.054e-9
0.112, 2.068e-9
0.114, 2.081e-9
0.116, 2.094e-9
0.118, 2.109e-9
0.120, 2.124e-9
0.122, 2.137e-9
0.124, 2.153e-9
0.126, 2.166e-9
0.128, 2.181e-9
0.130, 2.198e-9
0.132, 2.214e-9
0.134, 2.226e-9
0.136, 2.241e-9
0.138, 2.254e-9
0.140, 2.271e-9
0.142, 2.285e-9
0.144, 2.301e-9
0.146, 2.315e-9
0.148, 2.332e-9
0.150, 2.349e-9
0.152, 2.364e-9
0.154, 2.378e-9
0.156, 2.394e-9
0.158, 2.409e-9
0.160, 2.425e-9
0.162, 2.441e-9
0.164, 2.458e-9
0.166, 2.473e-9
0.168, 2.489e-9
0.170, 2.505e-9
0.172, 2.521e-9
0.174, 2.537e-9
0.176, 2.553e-9
0.178, 2.569e-9
0.180, 2.586e-9
0.182, 2.599e-9
0.184, 2.627e-9
0.186, 2.645e-9
0.188, 2.652e-9
0.190, 2.663e-9
0.192, 2.671e-9
0.194, 2.694e-9
0.196, 2.711e-9
0.198, 2.730e-9
0.200, 2.747e-9
0.202, 2.764e-9
0.204, 2.781e-9
0.206, 2.794e-9
0.208, 2.810e-9
0.210, 2.824e-9
0.212, 2.837e-9
0.214, 2.853e-9
0.216, 2.868e-9
0.218, 2.890e-9
0.220, 2.913e-9
0.222, 2.928e-9
0.224, 2.938e-9
0.226, 2.946e-9
0.228, 2.976e-9
0.230, 3.007e-9
0.232, 3.008e-9
0.234, 2.980e-9
0.236, 3.003e-9
0.238, 3.017e-9
0.240, 3.035e-9
0.242, 3.051e-9
0.244, 3.072e-9
0.246, 3.098e-9
0.248, 3.115e-9
0.250, 3.131e-9
0.252, 3.143e-9
0.254, 3.159e-9
0.256, 3.173e-9
0.258, 3.190e-9
0.260, 3.204e-9
0.262, 3.218e-9
0.264, 3.231e-9
0.266, 3.246e-9
0.268, 3.262e-9
0.270, 3.275e-9
0.272, 3.290e-9
0.274, 3.305e-9
0.276, 3.321e-9
0.278, 3.335e-9
0.280, 3.349e-9
0.282, 3.361e-9
0.284, 3.376e-9
0.286, 3.391e-9
0.288, 3.404e-9
0.290, 3.418e-9
0.292, 3.432e-9
0.294, 3.446e-9
0.296, 3.459e-9
0.298, 3.472e-9
0.300, 3.487e-9
0.302, 3.501e-9
0.304, 3.514e-9
0.306, 3.528e-9
0.308, 3.547e-9
0.310, 3.558e-9
0.312, 3.572e-9
0.314, 3.586e-9
0.316, 3.599e-9
0.318, 3.612e-9
0.320, 3.625e-9
0.322, 3.637e-9
0.324, 3.652e-9
0.326, 3.667e-9
0.328, 3.678e-9
0.330, 3.693e-9
0.332, 3.708e-9
0.334, 3.720e-9
0.336, 3.732e-9
0.338, 3.748e-9
0.340, 3.759e-9
0.342, 3.773e-9
0.344, 3.785e-9
0.346, 3.797e-9
0.348, 3.811e-9
0.350, 3.825e-9
0.352, 3.838e-9
0.354, 3.849e-9
0.356, 3.863e-9
0.358, 3.877e-9
0.360, 3.890e-9
0.362, 3.902e-9
0.364, 3.916e-9
0.366, 3.930e-9
0.368, 3.942e-9
0.370, 3.954e-9
0.372, 3.967e-9
0.374, 3.980e-9
0.376, 3.995e-9
0.378, 4.009e-9
0.380, 4.024e-9
0.382, 4.037e-9
0.384, 4.050e-9
0.386, 4.064e-9
0.388, 4.079e-9
0.390, 4.094e-9
0.392, 4.108e-9
0.394, 4.118e-9
0.396, 4.134e-9
0.398, 4.149e-9
0.400, 4.161e-9
0.402, 4.177e-9
0.404, 4.191e-9
0.406, 4.207e-9
0.408, 4.221e-9
0.410, 4.228e-9
0.412, 4.247e-9
0.414, 4.263e-9
0.416, 4.280e-9
0.418, 4.294e-9
0.420, 4.310e-9
0.422, 4.325e-9
0.424, 4.337e-9
0.426, 4.352e-9
0.428, 4.365e-9
0.430, 4.380e-9
0.432, 4.393e-9
0.434, 4.409e-9
0.436, 4.419e-9
0.438, 4.435e-9
0.440, 4.449e-9
0.442, 4.464e-9
0.444, 4.480e-9
0.446, 4.493e-9
0.448, 4.508e-9
0.450, 4.522e-9
0.452, 4.535e-9
0.454, 4.551e-9
0.456, 4.567e-9
0.458, 4.580e-9
0.460, 4.595e-9
0.462, 4.610e-9
0.464, 4.623e-9
0.466, 4.639e-9
0.468, 4.655e-9
0.470, 4.669e-9
0.472, 4.685e-9
0.474, 4.697e-9
0.476, 4.716e-9
0.478, 4.733e-9
0.480, 4.747e-9
0.482, 4.764e-9
0.484, 4.780e-9
0.486, 4.797e-9
0.488, 4.815e-9
0.490, 4.831e-9
0.492, 4.848e-9
0.494, 4.863e-9
0.496, 4.878e-9
0.498, 4.901e-9
0.500, 4.876e-9
0.498, 4.562e-9
0.496, 4.402e-9
0.494, 4.272e-9
0.492, 4.159e-9
0.490, 4.055e-9
0.488, 3.956e-9
0.486, 3.868e-9
0.484, 3.785e-9
0.482, 3.706e-9
0.480, 3.630e-9
0.478, 3.557e-9
0.476, 3.490e-9
0.474, 3.423e-9
0.472, 3.360e-9
0.470, 3.297e-9
0.468, 3.236e-9
0.466, 3.178e-9
0.464, 3.122e-9
0.462, 3.067e-9
0.460, 3.014e-9
0.458, 2.965e-9
0.456, 2.913e-9
0.454, 2.864e-9
0.452, 2.815e-9
0.450, 2.769e-9
0.448, 2.725e-9
0.446, 2.679e-9
0.444, 2.635e-9
0.442, 2.590e-9
0.440, 2.547e-9
0.438, 2.507e-9
0.436, 2.467e-9
0.434, 2.425e-9
0.432, 2.385e-9
0.430, 2.345e-9
0.428, 2.307e-9
0.426, 2.269e-9
0.424, 2.232e-9
0.422, 2.196e-9
0.420, 2.160e-9
0.418, 2.124e-9
0.416, 2.089e-9
0.414, 2.053e-9
0.412, 2.018e-9
0.410, 1.985e-9
0.408, 1.953e-9
0.406, 1.917e-9
0.404, 1.885e-9
0.402, 1.851e-9
0.400, 1.818e-9
0.398, 1.787e-9
0.396, 1.754e-9
0.394, 1.722e-9
0.392, 1.691e-9
0.390, 1.660e-9
0.388, 1.628e-9
0.386, 1.598e-9
0.384, 1.567e-9
0.382, 1.538e-9
0.380, 1.508e-9
0.378, 1.478e-9
0.376, 1.448e-9
0.374, 1.420e-9
0.372, 1.390e-9
0.370, 1.363e-9
0.368, 1.335e-9
0.366, 1.307e-9
0.364, 1.277e-9
0.362, 1.251e-9
0.360, 1.223e-9
0.358, 1.197e-9
0.356, 1.170e-9
0.354, 1.142e-9
0.352, 1.116e-9
0.350, 1.089e-9
0.348, 1.062e-9
0.346, 1.037e-9
0.344, 1.011e-9
0.342, 9.840e-10
0.340, 9.578e-10
0.338, 9.324e-10
0.336, 9.073e-10
0.334, 8.818e-10
0.332, 8.581e-10
0.330, 8.332e-10
0.328, 8.085e-10
0.326, 7.836e-10
0.324, 7.600e-10
0.322, 7.365e-10
0.320, 7.131e-10
0.318, 6.902e-10
0.316, 6.651e-10
0.314, 6.422e-10
0.312, 6.194e-10
0.310, 5.974e-10
0.308, 5.751e-10
0.306, 5.477e-10
0.304, 5.265e-10
0.302, 5.061e-10
0.300, 4.844e-10
0.298, 4.619e-10
0.296, 4.406e-10
0.294, 4.206e-10
0.292, 3.977e-10
0.290, 3.785e-10
0.288, 3.558e-10
0.286, 3.349e-10
0.284, 3.151e-10
0.282, 2.951e-10
0.280, 2.753e-10
0.278, 2.563e-10
0.276, 2.359e-10
0.274, 2.168e-10
0.272, 1.992e-10
0.270, 1.793e-10
0.268, 1.617e-10
0.266, 1.425e-10
0.264, 1.255e-10
0.262, 1.076e-10
0.260, 8.983e-11
0.258, 7.193e-11
0.256, 5.607e-11
0.254, 3.869e-11
0.252, 2.142e-11
0.250, 5.687e-12
0.248, -1.124e-11
0.246, -2.619e-11
0.244, -4.354e-11
0.242, -5.859e-11
0.240, -7.463e-11
0.238, -8.946e-11
0.236, -1.050e-10
0.234, -1.190e-10
0.232, -1.338e-10
0.230, -1.473e-10
0.228, -1.607e-10
0.226, -1.741e-10
0.224, -1.879e-10
0.222, -2.015e-10
0.220, -2.138e-10
0.218, -2.274e-10
0.216, -2.390e-10
0.214, -2.518e-10
0.212, -2.643e-10
0.210, -2.772e-10
0.208, -2.878e-10
0.206, -3.003e-10
0.204, -3.080e-10
0.202, -3.216e-10
0.200, -3.344e-10
0.198, -3.448e-10
0.196, -3.560e-10
0.194, -3.666e-10
0.192, -3.766e-10
0.190, -3.874e-10
0.188, -3.980e-10
0.186, -4.094e-10
0.184, -4.189e-10
0.182, -4.278e-10
0.180, -4.388e-10
0.178, -4.488e-10
0.176, -4.583e-10
0.174, -4.678e-10
0.172, -4.777e-10
0.170, -4.870e-10
0.168, -4.970e-10
0.166, -5.050e-10
0.164, -5.155e-10
0.162, -5.248e-10
0.160, -5.345e-10
0.158, -5.433e-10
0.156, -5.526e-10
0.154, -5.615e-10
0.152, -5.712e-10
0.150, -5.792e-10
0.148, -5.896e-10
0.146, -5.989e-10
0.144, -6.081e-10
0.142, -6.170e-10
0.140, -6.264e-10
0.138, -6.361e-10
0.136, -6.453e-10
0.134, -6.551e-10
0.132, -6.647e-10
0.130, -6.742e-10
0.128, -6.840e-10
0.126, -6.943e-10
0.124, -7.037e-10
0.122, -7.139e-10
0.120, -7.227e-10
0.118, -7.318e-10
0.116, -7.428e-10
0.114, -7.535e-10
0.112, -7.626e-10
0.110, -7.740e-10
0.108, -7.849e-10
0.106, -7.949e-10
0.104, -8.042e-10
0.102, -8.191e-10
0.100, -8.274e-10
0.098, -8.362e-10
0.096, -8.483e-10
0.094, -8.586e-10
0.092, -8.697e-10
0.090, -8.804e-10
0.088, -8.909e-10
0.086, -9.022e-10
0.084, -9.142e-10
0.082, -9.252e-10
0.080, -9.351e-10
0.078, -9.477e-10
0.076, -9.583e-10
0.074, -9.709e-10
0.072, -9.813e-10
0.070, -9.928e-10
0.068, -1.004e-9
0.066, -1.016e-9
0.064, -1.027e-9
0.062, -1.039e-9
0.060, -1.051e-9
0.058, -1.063e-9
0.056, -1.075e-9
0.054, -1.088e-9
0.052, -1.100e-9
0.050, -1.112e-9
0.048, -1.124e-9
0.046, -1.136e-9
0.044, -1.149e-9
0.042, -1.161e-9
0.040, -1.173e-9
0.038, -1.185e-9
0.036, -1.198e-9
0.034, -1.210e-9
0.032, -1.224e-9
0.030, -1.235e-9
0.028, -1.248e-9
0.026, -1.261e-9
0.024, -1.275e-9
0.022, -1.285e-9
0.020, -1.300e-9
0.018, -1.313e-9
0.016, -1.325e-9
0.014, -1.339e-9
0.012, -1.350e-9
0.010, -1.363e-9
0.008, -1.376e-9
0.006, -1.390e-9
0.004, -1.403e-9
0.002, -1.416e-9
-0.000, -1.424e-9
-0.002, -1.439e-9
-0.004, -1.452e-9
-0.006, -1.466e-9
-0.008, -1.478e-9
-0.010, -1.492e-9
-0.012, -1.504e-9
-0.014, -1.518e-9
-0.016, -1.531e-9
-0.018, -1.544e-9
-0.020, -1.556e-9
-0.022, -1.569e-9
-0.024, -1.582e-9
-0.026, -1.594e-9
-0.028, -1.606e-9
-0.030, -1.619e-9
-0.032, -1.633e-9
-0.034, -1.646e-9
-0.036, -1.660e-9
-0.038, -1.674e-9
-0.040, -1.689e-9
-0.042, -1.700e-9
-0.044, -1.720e-9
-0.046, -1.732e-9
-0.048, -1.752e-9
-0.050, -1.770e-9
-0.052, -1.779e-9
-0.054, -1.786e-9
-0.056, -1.800e-9
-0.058, -1.810e-9
-0.060, -1.820e-9
-0.062, -1.822e-9
-0.064, -1.822e-9
-0.066, -1.836e-9
-0.068, -1.846e-9
-0.070, -1.854e-9
-0.072, -1.860e-9
-0.074, -1.853e-9
-0.076, -1.852e-9
-0.078, -1.857e-9
-0.080, -1.881e-9
-0.082, -1.895e-9
-0.084, -1.915e-9
-0.086, -1.933e-9
-0.088, -1.960e-9
-0.090, -1.979e-9
-0.092, -1.995e-9
-0.094, -2.011e-9
-0.096, -2.022e-9
-0.098, -2.024e-9
-0.100, -2.028e-9
-0.102, -2.033e-9
-0.104, -2.053e-9
-0.106, -2.068e-9
-0.108, -2.080e-9
-0.110, -2.088e-9
-0.112, -2.098e-9
-0.114, -2.110e-9
-0.116, -2.120e-9
-0.118, -2.133e-9
-0.120, -2.146e-9
-0.122, -2.155e-9
-0.124, -2.167e-9
-0.126, -2.176e-9
-0.128, -2.186e-9
-0.130, -2.196e-9
-0.132, -2.206e-9
-0.134, -2.219e-9
-0.136, -2.230e-9
-0.138, -2.241e-9
-0.140, -2.250e-9
-0.142, -2.261e-9
-0.144, -2.270e-9
-0.146, -2.280e-9
-0.148, -2.292e-9
-0.150, -2.301e-9
-0.152, -2.310e-9
-0.154, -2.320e-9
-0.156, -2.332e-9
-0.158, -2.343e-9
-0.160, -2.352e-9
-0.162, -2.362e-9
-0.164, -2.367e-9
-0.166, -2.373e-9
-0.168, -2.385e-9
-0.170, -2.406e-9
-0.172, -2.421e-9
-0.174, -2.430e-9
-0.176, -2.435e-9
-0.178, -2.449e-9
-0.180, -2.462e-9
-0.182, -2.473e-9
-0.184, -2.483e-9
-0.186, -2.495e-9
-0.188, -2.510e-9
-0.190, -2.522e-9
-0.192, -2.532e-9
-0.194, -2.526e-9
-0.196, -2.539e-9
-0.198, -2.561e-9
-0.200, -2.574e-9
-0.202, -2.593e-9
-0.204, -2.595e-9
-0.206, -2.598e-9
-0.208, -2.609e-9
-0.210, -2.616e-9
-0.212, -2.628e-9
-0.214, -2.638e-9
-0.216, -2.653e-9
-0.218, -2.665e-9
-0.220, -2.678e-9
-0.222, -2.688e-9
-0.224, -2.703e-9
-0.226, -2.716e-9
-0.228, -2.725e-9
-0.230, -2.731e-9
-0.232, -2.736e-9
-0.234, -2.747e-9
-0.236, -2.755e-9
-0.238, -2.768e-9
-0.240, -2.771e-9
-0.242, -2.777e-9
-0.244, -2.792e-9
-0.246, -2.809e-9
-0.248, -2.819e-9
-0.250, -2.832e-9
-0.252, -2.841e-9
-0.254, -2.847e-9
-0.256, -2.856e-9
-0.258, -2.863e-9
-0.260, -2.873e-9
-0.262, -2.889e-9
-0.264, -2.904e-9
-0.266, -2.915e-9
-0.268, -2.924e-9
-0.270, -2.932e-9
-0.272, -2.945e-9
-0.274, -2.955e-9
-0.276, -2.962e-9
-0.278, -2.970e-9
-0.280, -2.983e-9
-0.282, -2.991e-9
-0.284, -3.003e-9
-0.286, -3.015e-9
-0.288, -3.026e-9
-0.290, -3.036e-9
-0.292, -3.044e-9
-0.294, -3.052e-9
-0.296, -3.068e-9
-0.298, -3.080e-9
-0.300, -3.089e-9
-0.302, -3.099e-9
-0.304, -3.105e-9
-0.306, -3.113e-9
-0.308, -3.124e-9
-0.310, -3.130e-9
-0.312, -3.142e-9
-0.314, -3.155e-9
-0.316, -3.165e-9
-0.318, -3.178e-9
-0.320, -3.191e-9
-0.322, -3.201e-9
-0.324, -3.211e-9
-0.326, -3.225e-9
-0.328, -3.235e-9
-0.330, -3.243e-9
-0.332, -3.255e-9
-0.334, -3.263e-9
-0.336, -3.272e-9
-0.338, -3.282e-9
-0.340, -3.294e-9
-0.342, -3.306e-9
-0.344, -3.315e-9
-0.346, -3.325e-9
-0.348, -3.332e-9
-0.350, -3.343e-9
-0.352, -3.352e-9
-0.354, -3.361e-9
-0.356, -3.373e-9
-0.358, -3.387e-9
-0.360, -3.399e-9
-0.362, -3.412e-9
-0.364, -3.423e-9
-0.366, -3.431e-9
-0.368, -3.442e-9
-0.370, -3.453e-9
-0.372, -3.465e-9
-0.374, -3.471e-9
-0.376, -3.479e-9
-0.378, -3.489e-9
-0.380, -3.503e-9
-0.382, -3.516e-9
-0.384, -3.528e-9
-0.386, -3.541e-9
-0.388, -3.551e-9
-0.390, -3.561e-9
-0.392, -3.569e-9
-0.394, -3.581e-9
-0.396, -3.595e-9
-0.398, -3.604e-9
-0.400, -3.616e-9
-0.402, -3.625e-9
-0.404, -3.635e-9
-0.406, -3.646e-9
-0.408, -3.657e-9
-0.410, -3.668e-9
-0.412, -3.680e-9
-0.414, -3.691e-9
-0.416, -3.703e-9
-0.418, -3.716e-9
-0.420, -3.730e-9
-0.422, -3.741e-9
-0.424, -3.753e-9
-0.426, -3.763e-9
-0.428, -3.773e-9
-0.430, -3.782e-9
-0.432, -3.794e-9
-0.434, -3.807e-9
-0.436, -3.819e-9
-0.438, -3.832e-9
-0.440, -3.845e-9
-0.442, -3.856e-9
-0.444, -3.867e-9
-0.446, -3.880e-9
-0.448, -3.890e-9
-0.450, -3.903e-9
-0.452, -3.915e-9
-0.454, -3.928e-9
-0.456, -3.942e-9
-0.458, -3.953e-9
-0.460, -3.967e-9
-0.462, -3.979e-9
-0.464, -3.991e-9
-0.466, -4.004e-9
-0.468, -4.017e-9
-0.470, -4.028e-9
-0.472, -4.041e-9
-0.474, -4.052e-9
-0.476, -4.068e-9
-0.478, -4.082e-9
-0.480, -4.098e-9
-0.482, -4.111e-9
-0.484, -4.126e-9
-0.486, -4.136e-9
-0.488, -4.150e-9
-0.490, -4.160e-9
-0.492, -4.177e-9
-0.494, -4.192e-9
-0.496, -4.204e-9
-0.498, -4.219e-9
-0.499, -4.225e-9