File: Supplementary Fig 4/Fig S4e Surface CV +DCMU/CV SURFACE INCUBATED 8.txt
Mar. 7, 2025   14:41:43
Cyclic Voltammetry
File: cv surface incubated 8.bin
Data Source:  Experiment
Instrument Model:  CHI920C
Ref. Electrode:
Header:
Note:

Init E (V) = -0.5
High E (V) = 0.5
Low E (V) = -0.5
Init P/N = P
Scan Rate (V/s) = 0.05
Segment = 2
Sample Interval (V) = 0.001
Quiet Time (sec) = 10
Sensitivity (A/V) = 1e-8

Results:

Channel 1:
Segment 1:

Segment 2:

Potential/V, Current/A

-0.500, -2.112e-9
-0.498, -1.966e-9
-0.496, -1.909e-9
-0.494, -1.867e-9
-0.492, -1.829e-9
-0.490, -1.794e-9
-0.488, -1.760e-9
-0.486, -1.731e-9
-0.484, -1.701e-9
-0.482, -1.673e-9
-0.480, -1.645e-9
-0.478, -1.620e-9
-0.476, -1.594e-9
-0.474, -1.568e-9
-0.472, -1.545e-9
-0.470, -1.521e-9
-0.468, -1.497e-9
-0.466, -1.474e-9
-0.464, -1.451e-9
-0.462, -1.430e-9
-0.460, -1.407e-9
-0.458, -1.385e-9
-0.456, -1.364e-9
-0.454, -1.343e-9
-0.452, -1.321e-9
-0.450, -1.301e-9
-0.448, -1.281e-9
-0.446, -1.261e-9
-0.444, -1.242e-9
-0.442, -1.221e-9
-0.440, -1.201e-9
-0.438, -1.183e-9
-0.436, -1.162e-9
-0.434, -1.145e-9
-0.432, -1.127e-9
-0.430, -1.107e-9
-0.428, -1.089e-9
-0.426, -1.072e-9
-0.424, -1.053e-9
-0.422, -1.036e-9
-0.420, -1.016e-9
-0.418, -1.000e-9
-0.416, -9.818e-10
-0.414, -9.630e-10
-0.412, -9.465e-10
-0.410, -9.288e-10
-0.408, -9.118e-10
-0.406, -8.948e-10
-0.404, -8.784e-10
-0.402, -8.606e-10
-0.400, -8.453e-10
-0.398, -8.270e-10
-0.396, -8.108e-10
-0.394, -7.937e-10
-0.392, -7.778e-10
-0.390, -7.623e-10
-0.388, -7.460e-10
-0.386, -7.305e-10
-0.384, -7.139e-10
-0.382, -7.001e-10
-0.380, -6.847e-10
-0.378, -6.692e-10
-0.376, -6.533e-10
-0.374, -6.387e-10
-0.372, -6.219e-10
-0.370, -6.075e-10
-0.368, -5.925e-10
-0.366, -5.768e-10
-0.364, -5.622e-10
-0.362, -5.472e-10
-0.360, -5.312e-10
-0.358, -5.178e-10
-0.356, -5.013e-10
-0.354, -4.881e-10
-0.352, -4.731e-10
-0.350, -4.589e-10
-0.348, -4.435e-10
-0.346, -4.307e-10
-0.344, -4.160e-10
-0.342, -4.038e-10
-0.340, -3.882e-10
-0.338, -3.744e-10
-0.336, -3.605e-10
-0.334, -3.465e-10
-0.332, -3.333e-10
-0.330, -3.194e-10
-0.328, -3.063e-10
-0.326, -2.924e-10
-0.324, -2.779e-10
-0.322, -2.652e-10
-0.320, -2.521e-10
-0.318, -2.395e-10
-0.316, -2.279e-10
-0.314, -2.142e-10
-0.312, -2.015e-10
-0.310, -1.898e-10
-0.308, -1.756e-10
-0.306, -1.591e-10
-0.304, -1.480e-10
-0.302, -1.356e-10
-0.300, -1.219e-10
-0.298, -1.093e-10
-0.296, -9.805e-11
-0.294, -8.544e-11
-0.292, -7.353e-11
-0.290, -6.092e-11
-0.288, -4.941e-11
-0.286, -3.793e-11
-0.284, -2.758e-11
-0.282, -1.503e-11
-0.280, -4.285e-12
-0.278, 8.387e-12
-0.276, 2.247e-11
-0.274, 3.449e-11
-0.272, 4.655e-11
-0.270, 5.804e-11
-0.268, 6.983e-11
-0.266, 8.241e-11
-0.264, 9.298e-11
-0.262, 1.038e-10
-0.260, 1.155e-10
-0.258, 1.262e-10
-0.256, 1.377e-10
-0.254, 1.485e-10
-0.252, 1.613e-10
-0.250, 1.727e-10
-0.248, 1.851e-10
-0.246, 1.946e-10
-0.244, 2.061e-10
-0.242, 2.165e-10
-0.240, 2.281e-10
-0.238, 2.385e-10
-0.236, 2.501e-10
-0.234, 2.618e-10
-0.232, 2.718e-10
-0.230, 2.814e-10
-0.228, 2.932e-10
-0.226, 3.032e-10
-0.224, 3.148e-10
-0.222, 3.259e-10
-0.220, 3.364e-10
-0.218, 3.470e-10
-0.216, 3.581e-10
-0.214, 3.670e-10
-0.212, 3.794e-10
-0.210, 3.893e-10
-0.208, 3.999e-10
-0.206, 4.104e-10
-0.204, 4.181e-10
-0.202, 4.314e-10
-0.200, 4.422e-10
-0.198, 4.538e-10
-0.196, 4.624e-10
-0.194, 4.737e-10
-0.192, 4.825e-10
-0.190, 4.940e-10
-0.188, 5.034e-10
-0.186, 5.140e-10
-0.184, 5.247e-10
-0.182, 5.350e-10
-0.180, 5.456e-10
-0.178, 5.566e-10
-0.176, 5.664e-10
-0.174, 5.766e-10
-0.172, 5.864e-10
-0.170, 5.960e-10
-0.168, 6.069e-10
-0.166, 6.162e-10
-0.164, 6.277e-10
-0.162, 6.362e-10
-0.160, 6.468e-10
-0.158, 6.573e-10
-0.156, 6.683e-10
-0.154, 6.786e-10
-0.152, 6.899e-10
-0.150, 6.982e-10
-0.148, 7.088e-10
-0.146, 7.194e-10
-0.144, 7.280e-10
-0.142, 7.378e-10
-0.140, 7.468e-10
-0.138, 7.574e-10
-0.136, 7.674e-10
-0.134, 7.799e-10
-0.132, 7.902e-10
-0.130, 8.007e-10
-0.128, 8.111e-10
-0.126, 8.195e-10
-0.124, 8.288e-10
-0.122, 8.405e-10
-0.120, 8.510e-10
-0.118, 8.608e-10
-0.116, 8.711e-10
-0.114, 8.807e-10
-0.112, 8.905e-10
-0.110, 9.008e-10
-0.108, 9.099e-10
-0.106, 9.201e-10
-0.104, 9.299e-10
-0.102, 9.457e-10
-0.100, 9.532e-10
-0.098, 9.643e-10
-0.096, 9.748e-10
-0.094, 9.853e-10
-0.092, 9.950e-10
-0.090, 1.004e-9
-0.088, 1.013e-9
-0.086, 1.022e-9
-0.084, 1.033e-9
-0.082, 1.043e-9
-0.080, 1.053e-9
-0.078, 1.064e-9
-0.076, 1.074e-9
-0.074, 1.087e-9
-0.072, 1.097e-9
-0.070, 1.107e-9
-0.068, 1.118e-9
-0.066, 1.127e-9
-0.064, 1.137e-9
-0.062, 1.148e-9
-0.060, 1.157e-9
-0.058, 1.167e-9
-0.056, 1.178e-9
-0.054, 1.187e-9
-0.052, 1.198e-9
-0.050, 1.206e-9
-0.048, 1.217e-9
-0.046, 1.228e-9
-0.044, 1.239e-9
-0.042, 1.250e-9
-0.040, 1.261e-9
-0.038, 1.271e-9
-0.036, 1.282e-9
-0.034, 1.291e-9
-0.032, 1.301e-9
-0.030, 1.312e-9
-0.028, 1.321e-9
-0.026, 1.331e-9
-0.024, 1.341e-9
-0.022, 1.350e-9
-0.020, 1.362e-9
-0.018, 1.374e-9
-0.016, 1.383e-9
-0.014, 1.394e-9
-0.012, 1.403e-9
-0.010, 1.415e-9
-0.008, 1.424e-9
-0.006, 1.434e-9
-0.004, 1.445e-9
-0.002, 1.455e-9
0.000, 1.460e-9
0.002, 1.472e-9
0.004, 1.484e-9
0.006, 1.494e-9
0.008, 1.504e-9
0.010, 1.514e-9
0.012, 1.525e-9
0.014, 1.535e-9
0.016, 1.546e-9
0.018, 1.555e-9
0.020, 1.567e-9
0.022, 1.577e-9
0.024, 1.586e-9
0.026, 1.595e-9
0.028, 1.605e-9
0.030, 1.616e-9
0.032, 1.626e-9
0.034, 1.637e-9
0.036, 1.646e-9
0.038, 1.657e-9
0.040, 1.668e-9
0.042, 1.677e-9
0.044, 1.688e-9
0.046, 1.698e-9
0.048, 1.707e-9
0.050, 1.719e-9
0.052, 1.728e-9
0.054, 1.738e-9
0.056, 1.749e-9
0.058, 1.759e-9
0.060, 1.768e-9
0.062, 1.780e-9
0.064, 1.789e-9
0.066, 1.799e-9
0.068, 1.811e-9
0.070, 1.821e-9
0.072, 1.831e-9
0.074, 1.841e-9
0.076, 1.854e-9
0.078, 1.865e-9
0.080, 1.875e-9
0.082, 1.886e-9
0.084, 1.897e-9
0.086, 1.907e-9
0.088, 1.917e-9
0.090, 1.926e-9
0.092, 1.939e-9
0.094, 1.952e-9
0.096, 1.964e-9
0.098, 1.976e-9
0.100, 1.990e-9
0.102, 2.006e-9
0.104, 2.025e-9
0.106, 2.042e-9
0.108, 2.055e-9
0.110, 2.069e-9
0.112, 2.077e-9
0.114, 2.081e-9
0.116, 2.088e-9
0.118, 2.093e-9
0.120, 2.101e-9
0.122, 2.113e-9
0.124, 2.124e-9
0.126, 2.137e-9
0.128, 2.150e-9
0.130, 2.163e-9
0.132, 2.175e-9
0.134, 2.189e-9
0.136, 2.202e-9
0.138, 2.215e-9
0.140, 2.229e-9
0.142, 2.242e-9
0.144, 2.255e-9
0.146, 2.269e-9
0.148, 2.284e-9
0.150, 2.297e-9
0.152, 2.311e-9
0.154, 2.324e-9
0.156, 2.339e-9
0.158, 2.354e-9
0.160, 2.368e-9
0.162, 2.382e-9
0.164, 2.397e-9
0.166, 2.410e-9
0.168, 2.425e-9
0.170, 2.439e-9
0.172, 2.456e-9
0.174, 2.470e-9
0.176, 2.485e-9
0.178, 2.499e-9
0.180, 2.514e-9
0.182, 2.528e-9
0.184, 2.543e-9
0.186, 2.557e-9
0.188, 2.573e-9
0.190, 2.588e-9
0.192, 2.603e-9
0.194, 2.619e-9
0.196, 2.631e-9
0.198, 2.646e-9
0.200, 2.662e-9
0.202, 2.676e-9
0.204, 2.689e-9
0.206, 2.699e-9
0.208, 2.714e-9
0.210, 2.729e-9
0.212, 2.744e-9
0.214, 2.759e-9
0.216, 2.773e-9
0.218, 2.785e-9
0.220, 2.800e-9
0.222, 2.813e-9
0.224, 2.827e-9
0.226, 2.839e-9
0.228, 2.854e-9
0.230, 2.867e-9
0.232, 2.881e-9
0.234, 2.895e-9
0.236, 2.908e-9
0.238, 2.922e-9
0.240, 2.934e-9
0.242, 2.947e-9
0.244, 2.959e-9
0.246, 2.973e-9
0.248, 2.984e-9
0.250, 2.998e-9
0.252, 3.010e-9
0.254, 3.022e-9
0.256, 3.035e-9
0.258, 3.048e-9
0.260, 3.061e-9
0.262, 3.073e-9
0.264, 3.086e-9
0.266, 3.097e-9
0.268, 3.110e-9
0.270, 3.120e-9
0.272, 3.131e-9
0.274, 3.141e-9
0.276, 3.153e-9
0.278, 3.164e-9
0.280, 3.177e-9
0.282, 3.189e-9
0.284, 3.201e-9
0.286, 3.212e-9
0.288, 3.223e-9
0.290, 3.234e-9
0.292, 3.245e-9
0.294, 3.257e-9
0.296, 3.267e-9
0.298, 3.277e-9
0.300, 3.287e-9
0.302, 3.298e-9
0.304, 3.309e-9
0.306, 3.320e-9
0.308, 3.336e-9
0.310, 3.345e-9
0.312, 3.354e-9
0.314, 3.366e-9
0.316, 3.375e-9
0.318, 3.385e-9
0.320, 3.395e-9
0.322, 3.406e-9
0.324, 3.415e-9
0.326, 3.424e-9
0.328, 3.436e-9
0.330, 3.446e-9
0.332, 3.457e-9
0.334, 3.466e-9
0.336, 3.476e-9
0.338, 3.486e-9
0.340, 3.497e-9
0.342, 3.506e-9
0.344, 3.516e-9
0.346, 3.525e-9
0.348, 3.536e-9
0.350, 3.546e-9
0.352, 3.556e-9
0.354, 3.565e-9
0.356, 3.574e-9
0.358, 3.585e-9
0.360, 3.595e-9
0.362, 3.605e-9
0.364, 3.617e-9
0.366, 3.627e-9
0.368, 3.636e-9
0.370, 3.645e-9
0.372, 3.654e-9
0.374, 3.665e-9
0.376, 3.675e-9
0.378, 3.685e-9
0.380, 3.696e-9
0.382, 3.705e-9
0.384, 3.716e-9
0.386, 3.727e-9
0.388, 3.737e-9
0.390, 3.750e-9
0.392, 3.762e-9
0.394, 3.772e-9
0.396, 3.785e-9
0.398, 3.794e-9
0.400, 3.806e-9
0.402, 3.819e-9
0.404, 3.831e-9
0.406, 3.842e-9
0.408, 3.855e-9
0.410, 3.857e-9
0.412, 3.872e-9
0.414, 3.884e-9
0.416, 3.896e-9
0.418, 3.909e-9
0.420, 3.920e-9
0.422, 3.931e-9
0.424, 3.942e-9
0.426, 3.953e-9
0.428, 3.964e-9
0.430, 3.975e-9
0.432, 3.986e-9
0.434, 3.998e-9
0.436, 4.009e-9
0.438, 4.021e-9
0.440, 4.034e-9
0.442, 4.044e-9
0.444, 4.057e-9
0.446, 4.067e-9
0.448, 4.080e-9
0.450, 4.092e-9
0.452, 4.103e-9
0.454, 4.115e-9
0.456, 4.127e-9
0.458, 4.138e-9
0.460, 4.151e-9
0.462, 4.162e-9
0.464, 4.174e-9
0.466, 4.187e-9
0.468, 4.201e-9
0.470, 4.212e-9
0.472, 4.225e-9
0.474, 4.237e-9
0.476, 4.251e-9
0.478, 4.265e-9
0.480, 4.277e-9
0.482, 4.290e-9
0.484, 4.303e-9
0.486, 4.317e-9
0.488, 4.331e-9
0.490, 4.344e-9
0.492, 4.360e-9
0.494, 4.375e-9
0.496, 4.388e-9
0.498, 4.404e-9
0.500, 4.373e-9
0.498, 4.061e-9
0.496, 3.920e-9
0.494, 3.811e-9
0.492, 3.714e-9
0.490, 3.629e-9
0.488, 3.549e-9
0.486, 3.476e-9
0.484, 3.406e-9
0.482, 3.341e-9
0.480, 3.277e-9
0.478, 3.218e-9
0.476, 3.162e-9
0.474, 3.106e-9
0.472, 3.054e-9
0.470, 3.002e-9
0.468, 2.953e-9
0.466, 2.904e-9
0.464, 2.859e-9
0.462, 2.812e-9
0.460, 2.768e-9
0.458, 2.725e-9
0.456, 2.682e-9
0.454, 2.640e-9
0.452, 2.600e-9
0.450, 2.560e-9
0.448, 2.522e-9
0.446, 2.484e-9
0.444, 2.446e-9
0.442, 2.409e-9
0.440, 2.372e-9
0.438, 2.337e-9
0.436, 2.302e-9
0.434, 2.267e-9
0.432, 2.233e-9
0.430, 2.199e-9
0.428, 2.165e-9
0.426, 2.133e-9
0.424, 2.100e-9
0.422, 2.069e-9
0.420, 2.036e-9
0.418, 2.005e-9
0.416, 1.973e-9
0.414, 1.944e-9
0.412, 1.913e-9
0.410, 1.885e-9
0.408, 1.857e-9
0.406, 1.827e-9
0.404, 1.797e-9
0.402, 1.767e-9
0.400, 1.740e-9
0.398, 1.709e-9
0.396, 1.683e-9
0.394, 1.654e-9
0.392, 1.625e-9
0.390, 1.596e-9
0.388, 1.568e-9
0.386, 1.541e-9
0.384, 1.515e-9
0.382, 1.489e-9
0.380, 1.461e-9
0.378, 1.435e-9
0.376, 1.410e-9
0.374, 1.385e-9
0.372, 1.358e-9
0.370, 1.333e-9
0.368, 1.307e-9
0.366, 1.282e-9
0.364, 1.256e-9
0.362, 1.231e-9
0.360, 1.206e-9
0.358, 1.182e-9
0.356, 1.158e-9
0.354, 1.134e-9
0.352, 1.109e-9
0.350, 1.086e-9
0.348, 1.062e-9
0.346, 1.038e-9
0.344, 1.015e-9
0.342, 9.918e-10
0.340, 9.688e-10
0.338, 9.450e-10
0.336, 9.228e-10
0.334, 9.002e-10
0.332, 8.781e-10
0.330, 8.547e-10
0.328, 8.332e-10
0.326, 8.101e-10
0.324, 7.888e-10
0.322, 7.669e-10
0.320, 7.452e-10
0.318, 7.233e-10
0.316, 6.994e-10
0.314, 6.774e-10
0.312, 6.577e-10
0.310, 6.359e-10
0.308, 6.161e-10
0.306, 5.925e-10
0.304, 5.765e-10
0.302, 5.564e-10
0.300, 5.370e-10
0.298, 5.187e-10
0.296, 4.967e-10
0.294, 4.776e-10
0.292, 4.581e-10
0.290, 4.398e-10
0.288, 4.210e-10
0.286, 4.018e-10
0.284, 3.848e-10
0.282, 3.674e-10
0.280, 3.501e-10
0.278, 3.318e-10
0.276, 3.142e-10
0.274, 2.965e-10
0.272, 2.806e-10
0.270, 2.644e-10
0.268, 2.480e-10
0.266, 2.307e-10
0.264, 2.151e-10
0.262, 1.980e-10
0.260, 1.820e-10
0.258, 1.665e-10
0.256, 1.519e-10
0.254, 1.357e-10
0.252, 1.214e-10
0.250, 1.070e-10
0.248, 9.158e-11
0.246, 7.750e-11
0.244, 6.248e-11
0.242, 5.009e-11
0.240, 3.457e-11
0.238, 2.169e-11
0.236, 8.261e-12
0.234, -5.192e-12
0.232, -1.733e-11
0.230, -2.976e-11
0.228, -4.248e-11
0.226, -5.537e-11
0.224, -6.685e-11
0.222, -7.940e-11
0.220, -9.001e-11
0.218, -1.012e-10
0.216, -1.118e-10
0.214, -1.222e-10
0.212, -1.332e-10
0.210, -1.430e-10
0.208, -1.530e-10
0.206, -1.624e-10
0.204, -1.681e-10
0.202, -1.800e-10
0.200, -1.902e-10
0.198, -2.004e-10
0.196, -2.119e-10
0.194, -2.205e-10
0.192, -2.302e-10
0.190, -2.414e-10
0.188, -2.505e-10
0.186, -2.602e-10
0.184, -2.680e-10
0.182, -2.773e-10
0.180, -2.864e-10
0.178, -2.961e-10
0.176, -3.034e-10
0.174, -3.129e-10
0.172, -3.217e-10
0.170, -3.302e-10
0.168, -3.399e-10
0.166, -3.471e-10
0.164, -3.555e-10
0.162, -3.636e-10
0.160, -3.733e-10
0.158, -3.804e-10
0.156, -3.888e-10
0.154, -3.969e-10
0.152, -4.070e-10
0.150, -4.153e-10
0.148, -4.253e-10
0.146, -4.327e-10
0.144, -4.404e-10
0.142, -4.497e-10
0.140, -4.559e-10
0.138, -4.655e-10
0.136, -4.739e-10
0.134, -4.840e-10
0.132, -4.923e-10
0.130, -5.019e-10
0.128, -5.087e-10
0.126, -5.201e-10
0.124, -5.279e-10
0.122, -5.367e-10
0.120, -5.456e-10
0.118, -5.543e-10
0.116, -5.637e-10
0.114, -5.724e-10
0.112, -5.816e-10
0.110, -5.912e-10
0.108, -6.017e-10
0.106, -6.099e-10
0.104, -6.208e-10
0.102, -6.335e-10
0.100, -6.401e-10
0.098, -6.496e-10
0.096, -6.604e-10
0.094, -6.687e-10
0.092, -6.780e-10
0.090, -6.889e-10
0.088, -6.983e-10
0.086, -7.079e-10
0.084, -7.180e-10
0.082, -7.295e-10
0.080, -7.393e-10
0.078, -7.502e-10
0.076, -7.598e-10
0.074, -7.719e-10
0.072, -7.816e-10
0.070, -7.917e-10
0.068, -8.027e-10
0.066, -8.135e-10
0.064, -8.248e-10
0.062, -8.359e-10
0.060, -8.491e-10
0.058, -8.596e-10
0.056, -8.713e-10
0.054, -8.810e-10
0.052, -8.935e-10
0.050, -9.049e-10
0.048, -9.163e-10
0.046, -9.282e-10
0.044, -9.398e-10
0.042, -9.527e-10
0.040, -9.638e-10
0.038, -9.755e-10
0.036, -9.882e-10
0.034, -9.997e-10
0.032, -1.012e-9
0.030, -1.024e-9
0.028, -1.036e-9
0.026, -1.049e-9
0.024, -1.061e-9
0.022, -1.073e-9
0.020, -1.087e-9
0.018, -1.100e-9
0.016, -1.112e-9
0.014, -1.124e-9
0.012, -1.137e-9
0.010, -1.149e-9
0.008, -1.163e-9
0.006, -1.176e-9
0.004, -1.189e-9
0.002, -1.202e-9
-0.000, -1.210e-9
-0.002, -1.227e-9
-0.004, -1.240e-9
-0.006, -1.254e-9
-0.008, -1.268e-9
-0.010, -1.280e-9
-0.012, -1.295e-9
-0.014, -1.308e-9
-0.016, -1.323e-9
-0.018, -1.338e-9
-0.020, -1.351e-9
-0.022, -1.366e-9
-0.024, -1.382e-9
-0.026, -1.395e-9
-0.028, -1.409e-9
-0.030, -1.424e-9
-0.032, -1.440e-9
-0.034, -1.454e-9
-0.036, -1.472e-9
-0.038, -1.495e-9
-0.040, -1.510e-9
-0.042, -1.523e-9
-0.044, -1.538e-9
-0.046, -1.545e-9
-0.048, -1.554e-9
-0.050, -1.557e-9
-0.052, -1.564e-9
-0.054, -1.582e-9
-0.056, -1.594e-9
-0.058, -1.608e-9
-0.060, -1.630e-9
-0.062, -1.655e-9
-0.064, -1.657e-9
-0.066, -1.660e-9
-0.068, -1.679e-9
-0.070, -1.702e-9
-0.072, -1.701e-9
-0.074, -1.708e-9
-0.076, -1.721e-9
-0.078, -1.730e-9
-0.080, -1.743e-9
-0.082, -1.758e-9
-0.084, -1.771e-9
-0.086, -1.784e-9
-0.088, -1.796e-9
-0.090, -1.810e-9
-0.092, -1.822e-9
-0.094, -1.834e-9
-0.096, -1.848e-9
-0.098, -1.858e-9
-0.100, -1.870e-9
-0.102, -1.885e-9
-0.104, -1.898e-9
-0.106, -1.908e-9
-0.108, -1.923e-9
-0.110, -1.935e-9
-0.112, -1.946e-9
-0.114, -1.965e-9
-0.116, -1.973e-9
-0.118, -1.984e-9
-0.120, -1.994e-9
-0.122, -2.007e-9
-0.124, -2.044e-9
-0.126, -2.031e-9
-0.128, -2.041e-9
-0.130, -2.054e-9
-0.132, -2.064e-9
-0.134, -2.077e-9
-0.136, -2.088e-9
-0.138, -2.100e-9
-0.140, -2.113e-9
-0.142, -2.124e-9
-0.144, -2.135e-9
-0.146, -2.147e-9
-0.148, -2.159e-9
-0.150, -2.168e-9
-0.152, -2.179e-9
-0.154, -2.190e-9
-0.156, -2.202e-9
-0.158, -2.214e-9
-0.160, -2.226e-9
-0.162, -2.236e-9
-0.164, -2.247e-9
-0.166, -2.259e-9
-0.168, -2.270e-9
-0.170, -2.280e-9
-0.172, -2.291e-9
-0.174, -2.303e-9
-0.176, -2.314e-9
-0.178, -2.325e-9
-0.180, -2.337e-9
-0.182, -2.348e-9
-0.184, -2.358e-9
-0.186, -2.368e-9
-0.188, -2.379e-9
-0.190, -2.389e-9
-0.192, -2.400e-9
-0.194, -2.410e-9
-0.196, -2.422e-9
-0.198, -2.433e-9
-0.200, -2.444e-9
-0.202, -2.456e-9
-0.204, -2.466e-9
-0.206, -2.472e-9
-0.208, -2.484e-9
-0.210, -2.496e-9
-0.212, -2.507e-9
-0.214, -2.517e-9
-0.216, -2.528e-9
-0.218, -2.538e-9
-0.220, -2.549e-9
-0.222, -2.559e-9
-0.224, -2.570e-9
-0.226, -2.580e-9
-0.228, -2.592e-9
-0.230, -2.602e-9
-0.232, -2.613e-9
-0.234, -2.622e-9
-0.236, -2.633e-9
-0.238, -2.644e-9
-0.240, -2.653e-9
-0.242, -2.663e-9
-0.244, -2.673e-9
-0.246, -2.683e-9
-0.248, -2.693e-9
-0.250, -2.704e-9
-0.252, -2.715e-9
-0.254, -2.726e-9
-0.256, -2.736e-9
-0.258, -2.747e-9
-0.260, -2.756e-9
-0.262, -2.766e-9
-0.264, -2.774e-9
-0.266, -2.783e-9
-0.268, -2.795e-9
-0.270, -2.805e-9
-0.272, -2.816e-9
-0.274, -2.826e-9
-0.276, -2.837e-9
-0.278, -2.847e-9
-0.280, -2.857e-9
-0.282, -2.868e-9
-0.284, -2.879e-9
-0.286, -2.888e-9
-0.288, -2.899e-9
-0.290, -2.909e-9
-0.292, -2.921e-9
-0.294, -2.930e-9
-0.296, -2.940e-9
-0.298, -2.950e-9
-0.300, -2.959e-9
-0.302, -2.970e-9
-0.304, -2.978e-9
-0.306, -2.989e-9
-0.308, -3.004e-9
-0.310, -3.012e-9
-0.312, -3.022e-9
-0.314, -3.033e-9
-0.316, -3.042e-9
-0.318, -3.052e-9
-0.320, -3.062e-9
-0.322, -3.073e-9
-0.324, -3.083e-9
-0.326, -3.093e-9
-0.328, -3.102e-9
-0.330, -3.115e-9
-0.332, -3.126e-9
-0.334, -3.135e-9
-0.336, -3.145e-9
-0.338, -3.155e-9
-0.340, -3.167e-9
-0.342, -3.176e-9
-0.344, -3.188e-9
-0.346, -3.198e-9
-0.348, -3.207e-9
-0.350, -3.219e-9
-0.352, -3.229e-9
-0.354, -3.240e-9
-0.356, -3.250e-9
-0.358, -3.261e-9
-0.360, -3.270e-9
-0.362, -3.281e-9
-0.364, -3.293e-9
-0.366, -3.302e-9
-0.368, -3.314e-9
-0.370, -3.323e-9
-0.372, -3.335e-9
-0.374, -3.345e-9
-0.376, -3.356e-9
-0.378, -3.366e-9
-0.380, -3.378e-9
-0.382, -3.388e-9
-0.384, -3.398e-9
-0.386, -3.410e-9
-0.388, -3.419e-9
-0.390, -3.432e-9
-0.392, -3.442e-9
-0.394, -3.453e-9
-0.396, -3.463e-9
-0.398, -3.475e-9
-0.400, -3.486e-9
-0.402, -3.498e-9
-0.404, -3.508e-9
-0.406, -3.517e-9
-0.408, -3.529e-9
-0.410, -3.542e-9
-0.412, -3.555e-9
-0.414, -3.565e-9
-0.416, -3.575e-9
-0.418, -3.586e-9
-0.420, -3.598e-9
-0.422, -3.610e-9
-0.424, -3.623e-9
-0.426, -3.634e-9
-0.428, -3.646e-9
-0.430, -3.658e-9
-0.432, -3.668e-9
-0.434, -3.679e-9
-0.436, -3.693e-9
-0.438, -3.703e-9
-0.440, -3.715e-9
-0.442, -3.727e-9
-0.444, -3.739e-9
-0.446, -3.750e-9
-0.448, -3.762e-9
-0.450, -3.775e-9
-0.452, -3.788e-9
-0.454, -3.802e-9
-0.456, -3.814e-9
-0.458, -3.825e-9
-0.460, -3.837e-9
-0.462, -3.849e-9
-0.464, -3.863e-9
-0.466, -3.875e-9
-0.468, -3.889e-9
-0.470, -3.901e-9
-0.472, -3.913e-9
-0.474, -3.925e-9
-0.476, -3.939e-9
-0.478, -3.953e-9
-0.480, -3.966e-9
-0.482, -3.977e-9
-0.484, -3.990e-9
-0.486, -4.004e-9
-0.488, -4.015e-9
-0.490, -4.031e-9
-0.492, -4.043e-9
-0.494, -4.055e-9
-0.496, -4.068e-9
-0.498, -4.082e-9
-0.499, -4.089e-9