File: Supplementary Fig 4/Fig S4e Surface CV +DCMU/CV SURFACE INCUBATED 2 .txt
Mar. 7, 2025   14:34:56
Cyclic Voltammetry
File: cv surface incubated 2 .bin
Data Source:  Experiment
Instrument Model:  CHI920C
Ref. Electrode:
Header:
Note:

Init E (V) = -0.5
High E (V) = 0.5
Low E (V) = -0.5
Init P/N = P
Scan Rate (V/s) = 0.05
Segment = 2
Sample Interval (V) = 0.001
Quiet Time (sec) = 10
Sensitivity (A/V) = 1e-8

Results:

Channel 1:
Segment 1:

Segment 2:

Potential/V, Current/A

-0.500, -1.845e-9
-0.498, -1.703e-9
-0.496, -1.646e-9
-0.494, -1.601e-9
-0.492, -1.562e-9
-0.490, -1.527e-9
-0.488, -1.495e-9
-0.486, -1.464e-9
-0.484, -1.435e-9
-0.482, -1.406e-9
-0.480, -1.378e-9
-0.478, -1.352e-9
-0.476, -1.326e-9
-0.474, -1.301e-9
-0.472, -1.277e-9
-0.470, -1.253e-9
-0.468, -1.228e-9
-0.466, -1.206e-9
-0.464, -1.185e-9
-0.462, -1.161e-9
-0.460, -1.141e-9
-0.458, -1.119e-9
-0.456, -1.097e-9
-0.454, -1.077e-9
-0.452, -1.056e-9
-0.450, -1.035e-9
-0.448, -1.016e-9
-0.446, -9.956e-10
-0.444, -9.758e-10
-0.442, -9.559e-10
-0.440, -9.363e-10
-0.438, -9.178e-10
-0.436, -8.995e-10
-0.434, -8.801e-10
-0.432, -8.613e-10
-0.430, -8.428e-10
-0.428, -8.245e-10
-0.426, -8.073e-10
-0.424, -7.889e-10
-0.422, -7.714e-10
-0.420, -7.527e-10
-0.418, -7.358e-10
-0.416, -7.180e-10
-0.414, -7.013e-10
-0.412, -6.844e-10
-0.410, -6.656e-10
-0.408, -6.507e-10
-0.406, -6.341e-10
-0.404, -6.170e-10
-0.402, -5.998e-10
-0.400, -5.836e-10
-0.398, -5.672e-10
-0.396, -5.517e-10
-0.394, -5.352e-10
-0.392, -5.195e-10
-0.390, -5.032e-10
-0.388, -4.872e-10
-0.386, -4.720e-10
-0.384, -4.565e-10
-0.382, -4.396e-10
-0.380, -4.262e-10
-0.378, -4.095e-10
-0.376, -3.939e-10
-0.374, -3.799e-10
-0.372, -3.633e-10
-0.370, -3.495e-10
-0.368, -3.348e-10
-0.366, -3.204e-10
-0.364, -3.042e-10
-0.362, -2.906e-10
-0.360, -2.755e-10
-0.358, -2.620e-10
-0.356, -2.466e-10
-0.354, -2.334e-10
-0.352, -2.185e-10
-0.350, -2.047e-10
-0.348, -1.910e-10
-0.346, -1.764e-10
-0.344, -1.629e-10
-0.342, -1.493e-10
-0.340, -1.341e-10
-0.338, -1.214e-10
-0.336, -1.080e-10
-0.334, -9.504e-11
-0.332, -8.068e-11
-0.330, -6.734e-11
-0.328, -5.383e-11
-0.326, -4.127e-11
-0.324, -2.774e-11
-0.322, -1.531e-11
-0.320, -1.848e-12
-0.318, 1.099e-11
-0.316, 2.419e-11
-0.314, 3.651e-11
-0.312, 5.014e-11
-0.310, 6.218e-11
-0.308, 7.468e-11
-0.306, 9.111e-11
-0.304, 1.012e-10
-0.302, 1.142e-10
-0.300, 1.257e-10
-0.298, 1.386e-10
-0.296, 1.499e-10
-0.294, 1.615e-10
-0.292, 1.740e-10
-0.290, 1.858e-10
-0.288, 1.984e-10
-0.286, 2.110e-10
-0.284, 2.218e-10
-0.282, 2.338e-10
-0.280, 2.455e-10
-0.278, 2.567e-10
-0.276, 2.689e-10
-0.274, 2.809e-10
-0.272, 2.921e-10
-0.270, 3.042e-10
-0.268, 3.158e-10
-0.266, 3.270e-10
-0.264, 3.381e-10
-0.262, 3.495e-10
-0.260, 3.611e-10
-0.258, 3.721e-10
-0.256, 3.831e-10
-0.254, 3.941e-10
-0.252, 4.047e-10
-0.250, 4.175e-10
-0.248, 4.283e-10
-0.246, 4.376e-10
-0.244, 4.498e-10
-0.242, 4.600e-10
-0.240, 4.709e-10
-0.238, 4.811e-10
-0.236, 4.925e-10
-0.234, 5.027e-10
-0.232, 5.142e-10
-0.230, 5.238e-10
-0.228, 5.343e-10
-0.226, 5.449e-10
-0.224, 5.569e-10
-0.222, 5.677e-10
-0.220, 5.782e-10
-0.218, 5.879e-10
-0.216, 5.978e-10
-0.214, 6.077e-10
-0.212, 6.185e-10
-0.210, 6.283e-10
-0.208, 6.383e-10
-0.206, 6.492e-10
-0.204, 6.558e-10
-0.202, 6.677e-10
-0.200, 6.779e-10
-0.198, 6.890e-10
-0.196, 6.992e-10
-0.194, 7.094e-10
-0.192, 7.170e-10
-0.190, 7.277e-10
-0.188, 7.370e-10
-0.186, 7.479e-10
-0.184, 7.582e-10
-0.182, 7.670e-10
-0.180, 7.759e-10
-0.178, 7.858e-10
-0.176, 7.944e-10
-0.174, 8.051e-10
-0.172, 8.145e-10
-0.170, 8.244e-10
-0.168, 8.345e-10
-0.166, 8.427e-10
-0.164, 8.522e-10
-0.162, 8.607e-10
-0.160, 8.707e-10
-0.158, 8.812e-10
-0.156, 8.921e-10
-0.154, 8.997e-10
-0.152, 9.084e-10
-0.150, 9.165e-10
-0.148, 9.284e-10
-0.146, 9.394e-10
-0.144, 9.468e-10
-0.142, 9.574e-10
-0.140, 9.647e-10
-0.138, 9.746e-10
-0.136, 9.841e-10
-0.134, 9.922e-10
-0.132, 1.002e-9
-0.130, 1.011e-9
-0.128, 1.020e-9
-0.126, 1.028e-9
-0.124, 1.038e-9
-0.122, 1.047e-9
-0.120, 1.056e-9
-0.118, 1.065e-9
-0.116, 1.074e-9
-0.114, 1.083e-9
-0.112, 1.093e-9
-0.110, 1.101e-9
-0.108, 1.111e-9
-0.106, 1.120e-9
-0.104, 1.129e-9
-0.102, 1.143e-9
-0.100, 1.149e-9
-0.098, 1.158e-9
-0.096, 1.167e-9
-0.094, 1.174e-9
-0.092, 1.183e-9
-0.090, 1.193e-9
-0.088, 1.201e-9
-0.086, 1.210e-9
-0.084, 1.219e-9
-0.082, 1.229e-9
-0.080, 1.237e-9
-0.078, 1.246e-9
-0.076, 1.255e-9
-0.074, 1.264e-9
-0.072, 1.272e-9
-0.070, 1.282e-9
-0.068, 1.291e-9
-0.066, 1.299e-9
-0.064, 1.309e-9
-0.062, 1.317e-9
-0.060, 1.327e-9
-0.058, 1.335e-9
-0.056, 1.346e-9
-0.054, 1.353e-9
-0.052, 1.363e-9
-0.050, 1.371e-9
-0.048, 1.380e-9
-0.046, 1.390e-9
-0.044, 1.399e-9
-0.042, 1.408e-9
-0.040, 1.417e-9
-0.038, 1.426e-9
-0.036, 1.436e-9
-0.034, 1.444e-9
-0.032, 1.454e-9
-0.030, 1.462e-9
-0.028, 1.472e-9
-0.026, 1.481e-9
-0.024, 1.490e-9
-0.022, 1.498e-9
-0.020, 1.508e-9
-0.018, 1.518e-9
-0.016, 1.527e-9
-0.014, 1.537e-9
-0.012, 1.545e-9
-0.010, 1.555e-9
-0.008, 1.564e-9
-0.006, 1.574e-9
-0.004, 1.583e-9
-0.002, 1.592e-9
0.000, 1.597e-9
0.002, 1.609e-9
0.004, 1.619e-9
0.006, 1.630e-9
0.008, 1.640e-9
0.010, 1.649e-9
0.012, 1.658e-9
0.014, 1.668e-9
0.016, 1.677e-9
0.018, 1.686e-9
0.020, 1.698e-9
0.022, 1.707e-9
0.024, 1.717e-9
0.026, 1.726e-9
0.028, 1.737e-9
0.030, 1.746e-9
0.032, 1.756e-9
0.034, 1.766e-9
0.036, 1.776e-9
0.038, 1.785e-9
0.040, 1.795e-9
0.042, 1.806e-9
0.044, 1.816e-9
0.046, 1.827e-9
0.048, 1.836e-9
0.050, 1.846e-9
0.052, 1.857e-9
0.054, 1.867e-9
0.056, 1.877e-9
0.058, 1.888e-9
0.060, 1.899e-9
0.062, 1.909e-9
0.064, 1.919e-9
0.066, 1.930e-9
0.068, 1.940e-9
0.070, 1.951e-9
0.072, 1.962e-9
0.074, 1.972e-9
0.076, 1.984e-9
0.078, 1.995e-9
0.080, 2.005e-9
0.082, 2.017e-9
0.084, 2.028e-9
0.086, 2.039e-9
0.088, 2.050e-9
0.090, 2.061e-9
0.092, 2.073e-9
0.094, 2.086e-9
0.096, 2.097e-9
0.098, 2.109e-9
0.100, 2.122e-9
0.102, 2.137e-9
0.104, 2.150e-9
0.106, 2.160e-9
0.108, 2.172e-9
0.110, 2.185e-9
0.112, 2.196e-9
0.114, 2.206e-9
0.116, 2.218e-9
0.118, 2.231e-9
0.120, 2.244e-9
0.122, 2.256e-9
0.124, 2.269e-9
0.126, 2.283e-9
0.128, 2.296e-9
0.130, 2.309e-9
0.132, 2.322e-9
0.134, 2.337e-9
0.136, 2.351e-9
0.138, 2.364e-9
0.140, 2.379e-9
0.142, 2.392e-9
0.144, 2.407e-9
0.146, 2.421e-9
0.148, 2.436e-9
0.150, 2.451e-9
0.152, 2.466e-9
0.154, 2.480e-9
0.156, 2.495e-9
0.158, 2.510e-9
0.160, 2.525e-9
0.162, 2.540e-9
0.164, 2.554e-9
0.166, 2.570e-9
0.168, 2.584e-9
0.170, 2.599e-9
0.172, 2.614e-9
0.174, 2.630e-9
0.176, 2.646e-9
0.178, 2.658e-9
0.180, 2.674e-9
0.182, 2.688e-9
0.184, 2.703e-9
0.186, 2.719e-9
0.188, 2.735e-9
0.190, 2.748e-9
0.192, 2.763e-9
0.194, 2.778e-9
0.196, 2.792e-9
0.198, 2.806e-9
0.200, 2.823e-9
0.202, 2.835e-9
0.204, 2.851e-9
0.206, 2.862e-9
0.208, 2.877e-9
0.210, 2.892e-9
0.212, 2.906e-9
0.214, 2.920e-9
0.216, 2.934e-9
0.218, 2.948e-9
0.220, 2.961e-9
0.222, 2.975e-9
0.224, 2.989e-9
0.226, 3.004e-9
0.228, 3.017e-9
0.230, 3.032e-9
0.232, 3.044e-9
0.234, 3.057e-9
0.236, 3.072e-9
0.238, 3.085e-9
0.240, 3.098e-9
0.242, 3.111e-9
0.244, 3.124e-9
0.246, 3.138e-9
0.248, 3.151e-9
0.250, 3.163e-9
0.252, 3.177e-9
0.254, 3.189e-9
0.256, 3.202e-9
0.258, 3.216e-9
0.260, 3.228e-9
0.262, 3.242e-9
0.264, 3.254e-9
0.266, 3.267e-9
0.268, 3.279e-9
0.270, 3.292e-9
0.272, 3.303e-9
0.274, 3.317e-9
0.276, 3.330e-9
0.278, 3.343e-9
0.280, 3.356e-9
0.282, 3.367e-9
0.284, 3.380e-9
0.286, 3.391e-9
0.288, 3.404e-9
0.290, 3.416e-9
0.292, 3.428e-9
0.294, 3.440e-9
0.296, 3.451e-9
0.298, 3.464e-9
0.300, 3.477e-9
0.302, 3.490e-9
0.304, 3.501e-9
0.306, 3.513e-9
0.308, 3.530e-9
0.310, 3.539e-9
0.312, 3.550e-9
0.314, 3.563e-9
0.316, 3.575e-9
0.318, 3.585e-9
0.320, 3.596e-9
0.322, 3.609e-9
0.324, 3.619e-9
0.326, 3.631e-9
0.328, 3.643e-9
0.330, 3.654e-9
0.332, 3.666e-9
0.334, 3.678e-9
0.336, 3.689e-9
0.338, 3.701e-9
0.340, 3.713e-9
0.342, 3.724e-9
0.344, 3.735e-9
0.346, 3.747e-9
0.348, 3.759e-9
0.350, 3.771e-9
0.352, 3.782e-9
0.354, 3.793e-9
0.356, 3.805e-9
0.358, 3.817e-9
0.360, 3.829e-9
0.362, 3.841e-9
0.364, 3.854e-9
0.366, 3.865e-9
0.368, 3.878e-9
0.370, 3.890e-9
0.372, 3.901e-9
0.374, 3.914e-9
0.376, 3.926e-9
0.378, 3.937e-9
0.380, 3.950e-9
0.382, 3.961e-9
0.384, 3.974e-9
0.386, 3.986e-9
0.388, 4.000e-9
0.390, 4.013e-9
0.392, 4.025e-9
0.394, 4.038e-9
0.396, 4.050e-9
0.398, 4.063e-9
0.400, 4.076e-9
0.402, 4.089e-9
0.404, 4.101e-9
0.406, 4.115e-9
0.408, 4.127e-9
0.410, 4.132e-9
0.412, 4.150e-9
0.414, 4.164e-9
0.416, 4.176e-9
0.418, 4.188e-9
0.420, 4.201e-9
0.422, 4.214e-9
0.424, 4.225e-9
0.426, 4.238e-9
0.428, 4.253e-9
0.430, 4.265e-9
0.432, 4.276e-9
0.434, 4.288e-9
0.436, 4.300e-9
0.438, 4.313e-9
0.440, 4.327e-9
0.442, 4.340e-9
0.444, 4.353e-9
0.446, 4.366e-9
0.448, 4.380e-9
0.450, 4.392e-9
0.452, 4.404e-9
0.454, 4.417e-9
0.456, 4.430e-9
0.458, 4.443e-9
0.460, 4.455e-9
0.462, 4.469e-9
0.464, 4.484e-9
0.466, 4.494e-9
0.468, 4.510e-9
0.470, 4.523e-9
0.472, 4.537e-9
0.474, 4.551e-9
0.476, 4.566e-9
0.478, 4.582e-9
0.480, 4.596e-9
0.482, 4.610e-9
0.484, 4.625e-9
0.486, 4.639e-9
0.488, 4.654e-9
0.490, 4.668e-9
0.492, 4.685e-9
0.494, 4.701e-9
0.496, 4.716e-9
0.498, 4.731e-9
0.500, 4.704e-9
0.498, 4.394e-9
0.496, 4.243e-9
0.494, 4.121e-9
0.492, 4.013e-9
0.490, 3.917e-9
0.488, 3.829e-9
0.486, 3.748e-9
0.484, 3.669e-9
0.482, 3.596e-9
0.480, 3.524e-9
0.478, 3.458e-9
0.476, 3.395e-9
0.474, 3.333e-9
0.472, 3.273e-9
0.470, 3.217e-9
0.468, 3.160e-9
0.466, 3.107e-9
0.464, 3.056e-9
0.462, 3.004e-9
0.460, 2.956e-9
0.458, 2.906e-9
0.456, 2.859e-9
0.454, 2.814e-9
0.452, 2.768e-9
0.450, 2.724e-9
0.448, 2.683e-9
0.446, 2.640e-9
0.444, 2.599e-9
0.442, 2.557e-9
0.440, 2.517e-9
0.438, 2.478e-9
0.436, 2.440e-9
0.434, 2.401e-9
0.432, 2.364e-9
0.430, 2.327e-9
0.428, 2.290e-9
0.426, 2.254e-9
0.424, 2.219e-9
0.422, 2.184e-9
0.420, 2.149e-9
0.418, 2.115e-9
0.416, 2.081e-9
0.414, 2.048e-9
0.412, 2.015e-9
0.410, 1.984e-9
0.408, 1.953e-9
0.406, 1.920e-9
0.404, 1.888e-9
0.402, 1.856e-9
0.400, 1.824e-9
0.398, 1.793e-9
0.396, 1.763e-9
0.394, 1.733e-9
0.392, 1.702e-9
0.390, 1.673e-9
0.388, 1.642e-9
0.386, 1.614e-9
0.384, 1.584e-9
0.382, 1.556e-9
0.380, 1.528e-9
0.378, 1.498e-9
0.376, 1.470e-9
0.374, 1.443e-9
0.372, 1.415e-9
0.370, 1.387e-9
0.368, 1.360e-9
0.366, 1.333e-9
0.364, 1.306e-9
0.362, 1.278e-9
0.360, 1.253e-9
0.358, 1.228e-9
0.356, 1.200e-9
0.354, 1.175e-9
0.352, 1.149e-9
0.350, 1.124e-9
0.348, 1.098e-9
0.346, 1.074e-9
0.344, 1.049e-9
0.342, 1.024e-9
0.340, 9.983e-10
0.338, 9.746e-10
0.336, 9.513e-10
0.334, 9.264e-10
0.332, 9.032e-10
0.330, 8.786e-10
0.328, 8.551e-10
0.326, 8.304e-10
0.324, 8.081e-10
0.322, 7.848e-10
0.320, 7.624e-10
0.318, 7.393e-10
0.316, 7.160e-10
0.314, 6.942e-10
0.312, 6.719e-10
0.310, 6.500e-10
0.308, 6.277e-10
0.306, 6.016e-10
0.304, 5.820e-10
0.302, 5.609e-10
0.300, 5.395e-10
0.298, 5.191e-10
0.296, 4.988e-10
0.294, 4.789e-10
0.292, 4.576e-10
0.290, 4.368e-10
0.288, 4.171e-10
0.286, 3.973e-10
0.284, 3.781e-10
0.282, 3.567e-10
0.280, 3.391e-10
0.278, 3.196e-10
0.276, 3.015e-10
0.274, 2.814e-10
0.272, 2.637e-10
0.270, 2.458e-10
0.268, 2.279e-10
0.266, 2.102e-10
0.264, 1.923e-10
0.262, 1.750e-10
0.260, 1.578e-10
0.258, 1.414e-10
0.256, 1.254e-10
0.254, 1.081e-10
0.252, 9.266e-11
0.250, 7.602e-11
0.248, 5.988e-11
0.246, 4.508e-11
0.244, 3.042e-11
0.242, 1.540e-11
0.240, 8.325e-13
0.238, -1.374e-11
0.236, -2.932e-11
0.234, -4.286e-11
0.232, -5.566e-11
0.230, -6.902e-11
0.228, -8.309e-11
0.226, -9.670e-11
0.224, -1.096e-10
0.222, -1.221e-10
0.220, -1.346e-10
0.218, -1.469e-10
0.216, -1.585e-10
0.214, -1.699e-10
0.212, -1.835e-10
0.210, -1.948e-10
0.208, -2.059e-10
0.206, -2.169e-10
0.204, -2.247e-10
0.202, -2.384e-10
0.200, -2.494e-10
0.198, -2.605e-10
0.196, -2.711e-10
0.194, -2.819e-10
0.192, -2.901e-10
0.190, -3.013e-10
0.188, -3.104e-10
0.186, -3.219e-10
0.184, -3.321e-10
0.182, -3.406e-10
0.180, -3.514e-10
0.178, -3.602e-10
0.176, -3.690e-10
0.174, -3.791e-10
0.172, -3.890e-10
0.170, -3.978e-10
0.168, -4.068e-10
0.166, -4.146e-10
0.164, -4.251e-10
0.162, -4.331e-10
0.160, -4.434e-10
0.158, -4.515e-10
0.156, -4.609e-10
0.154, -4.700e-10
0.152, -4.785e-10
0.150, -4.867e-10
0.148, -4.959e-10
0.146, -5.049e-10
0.144, -5.137e-10
0.142, -5.231e-10
0.140, -5.320e-10
0.138, -5.406e-10
0.136, -5.502e-10
0.134, -5.581e-10
0.132, -5.684e-10
0.130, -5.764e-10
0.128, -5.854e-10
0.126, -5.946e-10
0.124, -6.037e-10
0.122, -6.129e-10
0.120, -6.225e-10
0.118, -6.322e-10
0.116, -6.406e-10
0.114, -6.511e-10
0.112, -6.589e-10
0.110, -6.695e-10
0.108, -6.785e-10
0.106, -6.889e-10
0.104, -6.978e-10
0.102, -7.118e-10
0.100, -7.183e-10
0.098, -7.277e-10
0.096, -7.372e-10
0.094, -7.473e-10
0.092, -7.564e-10
0.090, -7.662e-10
0.088, -7.773e-10
0.086, -7.848e-10
0.084, -7.970e-10
0.082, -8.059e-10
0.080, -8.170e-10
0.078, -8.260e-10
0.076, -8.374e-10
0.074, -8.473e-10
0.072, -8.578e-10
0.070, -8.697e-10
0.068, -8.789e-10
0.066, -8.899e-10
0.064, -8.997e-10
0.062, -9.109e-10
0.060, -9.205e-10
0.058, -9.329e-10
0.056, -9.419e-10
0.054, -9.532e-10
0.052, -9.645e-10
0.050, -9.756e-10
0.048, -9.853e-10
0.046, -9.974e-10
0.044, -1.008e-9
0.042, -1.019e-9
0.040, -1.029e-9
0.038, -1.041e-9
0.036, -1.051e-9
0.034, -1.063e-9
0.032, -1.075e-9
0.030, -1.086e-9
0.028, -1.096e-9
0.026, -1.108e-9
0.024, -1.120e-9
0.022, -1.131e-9
0.020, -1.143e-9
0.018, -1.154e-9
0.016, -1.165e-9
0.014, -1.178e-9
0.012, -1.188e-9
0.010, -1.200e-9
0.008, -1.211e-9
0.006, -1.222e-9
0.004, -1.235e-9
0.002, -1.247e-9
-0.000, -1.254e-9
-0.002, -1.267e-9
-0.004, -1.279e-9
-0.006, -1.292e-9
-0.008, -1.303e-9
-0.010, -1.315e-9
-0.012, -1.328e-9
-0.014, -1.338e-9
-0.016, -1.350e-9
-0.018, -1.363e-9
-0.020, -1.374e-9
-0.022, -1.388e-9
-0.024, -1.400e-9
-0.026, -1.410e-9
-0.028, -1.423e-9
-0.030, -1.436e-9
-0.032, -1.453e-9
-0.034, -1.464e-9
-0.036, -1.480e-9
-0.038, -1.495e-9
-0.040, -1.511e-9
-0.042, -1.521e-9
-0.044, -1.540e-9
-0.046, -1.559e-9
-0.048, -1.570e-9
-0.050, -1.586e-9
-0.052, -1.590e-9
-0.054, -1.592e-9
-0.056, -1.602e-9
-0.058, -1.601e-9
-0.060, -1.608e-9
-0.062, -1.615e-9
-0.064, -1.626e-9
-0.066, -1.647e-9
-0.068, -1.675e-9
-0.070, -1.687e-9
-0.072, -1.672e-9
-0.074, -1.680e-9
-0.076, -1.692e-9
-0.078, -1.703e-9
-0.080, -1.713e-9
-0.082, -1.725e-9
-0.084, -1.735e-9
-0.086, -1.748e-9
-0.088, -1.760e-9
-0.090, -1.770e-9
-0.092, -1.783e-9
-0.094, -1.792e-9
-0.096, -1.803e-9
-0.098, -1.829e-9
-0.100, -1.824e-9
-0.102, -1.834e-9
-0.104, -1.846e-9
-0.106, -1.855e-9
-0.108, -1.866e-9
-0.110, -1.877e-9
-0.112, -1.888e-9
-0.114, -1.898e-9
-0.116, -1.908e-9
-0.118, -1.920e-9
-0.120, -1.929e-9
-0.122, -1.941e-9
-0.124, -1.951e-9
-0.126, -1.961e-9
-0.128, -1.971e-9
-0.130, -1.981e-9
-0.132, -1.993e-9
-0.134, -2.003e-9
-0.136, -2.015e-9
-0.138, -2.023e-9
-0.140, -2.035e-9
-0.142, -2.045e-9
-0.144, -2.056e-9
-0.146, -2.066e-9
-0.148, -2.077e-9
-0.150, -2.088e-9
-0.152, -2.098e-9
-0.154, -2.107e-9
-0.156, -2.118e-9
-0.158, -2.128e-9
-0.160, -2.138e-9
-0.162, -2.150e-9
-0.164, -2.159e-9
-0.166, -2.169e-9
-0.168, -2.179e-9
-0.170, -2.189e-9
-0.172, -2.199e-9
-0.174, -2.211e-9
-0.176, -2.220e-9
-0.178, -2.230e-9
-0.180, -2.240e-9
-0.182, -2.251e-9
-0.184, -2.261e-9
-0.186, -2.272e-9
-0.188, -2.282e-9
-0.190, -2.293e-9
-0.192, -2.301e-9
-0.194, -2.312e-9
-0.196, -2.322e-9
-0.198, -2.334e-9
-0.200, -2.344e-9
-0.202, -2.354e-9
-0.204, -2.366e-9
-0.206, -2.374e-9
-0.208, -2.385e-9
-0.210, -2.396e-9
-0.212, -2.407e-9
-0.214, -2.416e-9
-0.216, -2.425e-9
-0.218, -2.435e-9
-0.220, -2.446e-9
-0.222, -2.456e-9
-0.224, -2.469e-9
-0.226, -2.478e-9
-0.228, -2.486e-9
-0.230, -2.497e-9
-0.232, -2.506e-9
-0.234, -2.516e-9
-0.236, -2.527e-9
-0.238, -2.537e-9
-0.240, -2.546e-9
-0.242, -2.557e-9
-0.244, -2.566e-9
-0.246, -2.576e-9
-0.248, -2.585e-9
-0.250, -2.596e-9
-0.252, -2.606e-9
-0.254, -2.616e-9
-0.256, -2.626e-9
-0.258, -2.635e-9
-0.260, -2.645e-9
-0.262, -2.655e-9
-0.264, -2.665e-9
-0.266, -2.676e-9
-0.268, -2.688e-9
-0.270, -2.698e-9
-0.272, -2.705e-9
-0.274, -2.714e-9
-0.276, -2.726e-9
-0.278, -2.737e-9
-0.280, -2.748e-9
-0.282, -2.757e-9
-0.284, -2.764e-9
-0.286, -2.775e-9
-0.288, -2.788e-9
-0.290, -2.800e-9
-0.292, -2.810e-9
-0.294, -2.820e-9
-0.296, -2.830e-9
-0.298, -2.839e-9
-0.300, -2.842e-9
-0.302, -2.858e-9
-0.304, -2.871e-9
-0.306, -2.883e-9
-0.308, -2.898e-9
-0.310, -2.902e-9
-0.312, -2.912e-9
-0.314, -2.923e-9
-0.316, -2.931e-9
-0.318, -2.943e-9
-0.320, -2.953e-9
-0.322, -2.964e-9
-0.324, -2.976e-9
-0.326, -2.987e-9
-0.328, -2.998e-9
-0.330, -3.006e-9
-0.332, -3.019e-9
-0.334, -3.029e-9
-0.336, -3.038e-9
-0.338, -3.048e-9
-0.340, -3.060e-9
-0.342, -3.072e-9
-0.344, -3.082e-9
-0.346, -3.094e-9
-0.348, -3.103e-9
-0.350, -3.114e-9
-0.352, -3.127e-9
-0.354, -3.136e-9
-0.356, -3.147e-9
-0.358, -3.157e-9
-0.360, -3.166e-9
-0.362, -3.175e-9
-0.364, -3.187e-9
-0.366, -3.197e-9
-0.368, -3.208e-9
-0.370, -3.220e-9
-0.372, -3.230e-9
-0.374, -3.241e-9
-0.376, -3.250e-9
-0.378, -3.261e-9
-0.380, -3.272e-9
-0.382, -3.284e-9
-0.384, -3.295e-9
-0.386, -3.307e-9
-0.388, -3.319e-9
-0.390, -3.330e-9
-0.392, -3.340e-9
-0.394, -3.350e-9
-0.396, -3.361e-9
-0.398, -3.373e-9
-0.400, -3.384e-9
-0.402, -3.395e-9
-0.404, -3.407e-9
-0.406, -3.418e-9
-0.408, -3.430e-9
-0.410, -3.442e-9
-0.412, -3.453e-9
-0.414, -3.462e-9
-0.416, -3.476e-9
-0.418, -3.485e-9
-0.420, -3.497e-9
-0.422, -3.508e-9
-0.424, -3.520e-9
-0.426, -3.531e-9
-0.428, -3.543e-9
-0.430, -3.556e-9
-0.432, -3.567e-9
-0.434, -3.580e-9
-0.436, -3.590e-9
-0.438, -3.604e-9
-0.440, -3.615e-9
-0.442, -3.627e-9
-0.444, -3.640e-9
-0.446, -3.653e-9
-0.448, -3.663e-9
-0.450, -3.676e-9
-0.452, -3.688e-9
-0.454, -3.702e-9
-0.456, -3.715e-9
-0.458, -3.727e-9
-0.460, -3.740e-9
-0.462, -3.752e-9
-0.464, -3.764e-9
-0.466, -3.779e-9
-0.468, -3.791e-9
-0.470, -3.806e-9
-0.472, -3.818e-9
-0.474, -3.831e-9
-0.476, -3.844e-9
-0.478, -3.857e-9
-0.480, -3.872e-9
-0.482, -3.884e-9
-0.484, -3.899e-9
-0.486, -3.911e-9
-0.488, -3.925e-9
-0.490, -3.938e-9
-0.492, -3.953e-9
-0.494, -3.967e-9
-0.496, -3.980e-9
-0.498, -3.996e-9
-0.499, -4.005e-9