File: Supplementary Fig 4/Fig S4e Surface CV +DCMU/CV SURFACE INCUBATED 11.txt
Mar. 7, 2025   14:45:09
Cyclic Voltammetry
File: cv surface incubated 11.bin
Data Source:  Experiment
Instrument Model:  CHI920C
Ref. Electrode:
Header:
Note:

Init E (V) = -0.5
High E (V) = 0.5
Low E (V) = -0.5
Init P/N = P
Scan Rate (V/s) = 0.05
Segment = 2
Sample Interval (V) = 0.001
Quiet Time (sec) = 10
Sensitivity (A/V) = 1e-8

Results:

Channel 1:
Segment 1:

Segment 2:

Potential/V, Current/A

-0.500, -2.161e-9
-0.498, -2.016e-9
-0.496, -1.961e-9
-0.494, -1.917e-9
-0.492, -1.880e-9
-0.490, -1.846e-9
-0.488, -1.813e-9
-0.486, -1.784e-9
-0.484, -1.754e-9
-0.482, -1.726e-9
-0.480, -1.700e-9
-0.478, -1.673e-9
-0.476, -1.647e-9
-0.474, -1.622e-9
-0.472, -1.598e-9
-0.470, -1.574e-9
-0.468, -1.551e-9
-0.466, -1.527e-9
-0.464, -1.504e-9
-0.462, -1.483e-9
-0.460, -1.461e-9
-0.458, -1.439e-9
-0.456, -1.418e-9
-0.454, -1.397e-9
-0.452, -1.375e-9
-0.450, -1.355e-9
-0.448, -1.336e-9
-0.446, -1.316e-9
-0.444, -1.296e-9
-0.442, -1.276e-9
-0.440, -1.258e-9
-0.438, -1.238e-9
-0.436, -1.219e-9
-0.434, -1.200e-9
-0.432, -1.181e-9
-0.430, -1.162e-9
-0.428, -1.144e-9
-0.426, -1.125e-9
-0.424, -1.107e-9
-0.422, -1.091e-9
-0.420, -1.071e-9
-0.418, -1.054e-9
-0.416, -1.037e-9
-0.414, -1.019e-9
-0.412, -1.002e-9
-0.410, -9.834e-10
-0.408, -9.668e-10
-0.406, -9.507e-10
-0.404, -9.327e-10
-0.402, -9.149e-10
-0.400, -9.010e-10
-0.398, -8.838e-10
-0.396, -8.674e-10
-0.394, -8.520e-10
-0.392, -8.343e-10
-0.390, -8.177e-10
-0.388, -8.025e-10
-0.386, -7.873e-10
-0.384, -7.710e-10
-0.382, -7.547e-10
-0.380, -7.395e-10
-0.378, -7.223e-10
-0.376, -7.080e-10
-0.374, -6.918e-10
-0.372, -6.771e-10
-0.370, -6.621e-10
-0.368, -6.462e-10
-0.366, -6.307e-10
-0.364, -6.161e-10
-0.362, -6.013e-10
-0.360, -5.867e-10
-0.358, -5.727e-10
-0.356, -5.568e-10
-0.354, -5.423e-10
-0.352, -5.282e-10
-0.350, -5.128e-10
-0.348, -4.996e-10
-0.346, -4.850e-10
-0.344, -4.712e-10
-0.342, -4.570e-10
-0.340, -4.422e-10
-0.338, -4.283e-10
-0.336, -4.148e-10
-0.334, -4.005e-10
-0.332, -3.876e-10
-0.330, -3.734e-10
-0.328, -3.607e-10
-0.326, -3.464e-10
-0.324, -3.327e-10
-0.322, -3.202e-10
-0.320, -3.069e-10
-0.318, -2.933e-10
-0.316, -2.798e-10
-0.314, -2.663e-10
-0.312, -2.539e-10
-0.310, -2.414e-10
-0.308, -2.273e-10
-0.306, -2.107e-10
-0.304, -2.012e-10
-0.302, -1.882e-10
-0.300, -1.750e-10
-0.298, -1.633e-10
-0.296, -1.499e-10
-0.294, -1.387e-10
-0.292, -1.256e-10
-0.290, -1.128e-10
-0.288, -1.001e-10
-0.286, -8.848e-11
-0.284, -7.686e-11
-0.282, -6.459e-11
-0.280, -5.256e-11
-0.278, -4.103e-11
-0.276, -2.874e-11
-0.274, -1.596e-11
-0.272, -3.476e-12
-0.270, 7.724e-12
-0.268, 1.869e-11
-0.266, 3.082e-11
-0.264, 4.297e-11
-0.262, 5.434e-11
-0.260, 6.746e-11
-0.258, 7.956e-11
-0.256, 8.985e-11
-0.254, 1.018e-10
-0.252, 1.126e-10
-0.250, 1.242e-10
-0.248, 1.359e-10
-0.246, 1.470e-10
-0.244, 1.589e-10
-0.242, 1.696e-10
-0.240, 1.812e-10
-0.238, 1.942e-10
-0.236, 2.043e-10
-0.234, 2.148e-10
-0.232, 2.261e-10
-0.230, 2.368e-10
-0.228, 2.485e-10
-0.226, 2.587e-10
-0.224, 2.704e-10
-0.222, 2.809e-10
-0.220, 2.926e-10
-0.218, 3.027e-10
-0.216, 3.139e-10
-0.214, 3.239e-10
-0.212, 3.360e-10
-0.210, 3.457e-10
-0.208, 3.572e-10
-0.206, 3.682e-10
-0.204, 3.757e-10
-0.202, 3.888e-10
-0.200, 3.999e-10
-0.198, 4.098e-10
-0.196, 4.210e-10
-0.194, 4.328e-10
-0.192, 4.415e-10
-0.190, 4.536e-10
-0.188, 4.644e-10
-0.186, 4.750e-10
-0.184, 4.857e-10
-0.182, 4.956e-10
-0.180, 5.070e-10
-0.178, 5.165e-10
-0.176, 5.273e-10
-0.174, 5.385e-10
-0.172, 5.490e-10
-0.170, 5.592e-10
-0.168, 5.698e-10
-0.166, 5.788e-10
-0.164, 5.905e-10
-0.162, 6.007e-10
-0.160, 6.107e-10
-0.158, 6.223e-10
-0.156, 6.326e-10
-0.154, 6.427e-10
-0.152, 6.528e-10
-0.150, 6.626e-10
-0.148, 6.740e-10
-0.146, 6.840e-10
-0.144, 6.936e-10
-0.142, 7.056e-10
-0.140, 7.156e-10
-0.138, 7.268e-10
-0.136, 7.364e-10
-0.134, 7.476e-10
-0.132, 7.575e-10
-0.130, 7.685e-10
-0.128, 7.784e-10
-0.126, 7.887e-10
-0.124, 7.995e-10
-0.122, 8.100e-10
-0.120, 8.209e-10
-0.118, 8.310e-10
-0.116, 8.422e-10
-0.114, 8.522e-10
-0.112, 8.625e-10
-0.110, 8.736e-10
-0.108, 8.848e-10
-0.106, 8.944e-10
-0.104, 9.051e-10
-0.102, 9.207e-10
-0.100, 9.281e-10
-0.098, 9.380e-10
-0.096, 9.484e-10
-0.094, 9.588e-10
-0.092, 9.690e-10
-0.090, 9.802e-10
-0.088, 9.893e-10
-0.086, 9.998e-10
-0.084, 1.011e-9
-0.082, 1.023e-9
-0.080, 1.032e-9
-0.078, 1.041e-9
-0.076, 1.053e-9
-0.074, 1.065e-9
-0.072, 1.074e-9
-0.070, 1.086e-9
-0.068, 1.097e-9
-0.066, 1.106e-9
-0.064, 1.118e-9
-0.062, 1.127e-9
-0.060, 1.137e-9
-0.058, 1.149e-9
-0.056, 1.158e-9
-0.054, 1.169e-9
-0.052, 1.181e-9
-0.050, 1.191e-9
-0.048, 1.201e-9
-0.046, 1.212e-9
-0.044, 1.223e-9
-0.042, 1.233e-9
-0.040, 1.244e-9
-0.038, 1.254e-9
-0.036, 1.266e-9
-0.034, 1.277e-9
-0.032, 1.288e-9
-0.030, 1.296e-9
-0.028, 1.306e-9
-0.026, 1.317e-9
-0.024, 1.327e-9
-0.022, 1.338e-9
-0.020, 1.349e-9
-0.018, 1.360e-9
-0.016, 1.370e-9
-0.014, 1.382e-9
-0.012, 1.392e-9
-0.010, 1.403e-9
-0.008, 1.413e-9
-0.006, 1.423e-9
-0.004, 1.432e-9
-0.002, 1.441e-9
0.000, 1.447e-9
0.002, 1.459e-9
0.004, 1.468e-9
0.006, 1.479e-9
0.008, 1.490e-9
0.010, 1.499e-9
0.012, 1.511e-9
0.014, 1.521e-9
0.016, 1.531e-9
0.018, 1.542e-9
0.020, 1.551e-9
0.022, 1.562e-9
0.024, 1.571e-9
0.026, 1.581e-9
0.028, 1.592e-9
0.030, 1.601e-9
0.032, 1.611e-9
0.034, 1.622e-9
0.036, 1.632e-9
0.038, 1.642e-9
0.040, 1.652e-9
0.042, 1.661e-9
0.044, 1.673e-9
0.046, 1.683e-9
0.048, 1.692e-9
0.050, 1.703e-9
0.052, 1.712e-9
0.054, 1.724e-9
0.056, 1.734e-9
0.058, 1.744e-9
0.060, 1.754e-9
0.062, 1.764e-9
0.064, 1.773e-9
0.066, 1.785e-9
0.068, 1.795e-9
0.070, 1.805e-9
0.072, 1.815e-9
0.074, 1.826e-9
0.076, 1.835e-9
0.078, 1.847e-9
0.080, 1.856e-9
0.082, 1.866e-9
0.084, 1.877e-9
0.086, 1.888e-9
0.088, 1.897e-9
0.090, 1.909e-9
0.092, 1.920e-9
0.094, 1.931e-9
0.096, 1.946e-9
0.098, 1.956e-9
0.100, 1.970e-9
0.102, 1.985e-9
0.104, 2.000e-9
0.106, 2.013e-9
0.108, 2.024e-9
0.110, 2.033e-9
0.112, 2.040e-9
0.114, 2.046e-9
0.116, 2.054e-9
0.118, 2.066e-9
0.120, 2.077e-9
0.122, 2.086e-9
0.124, 2.100e-9
0.126, 2.110e-9
0.128, 2.123e-9
0.130, 2.135e-9
0.132, 2.147e-9
0.134, 2.159e-9
0.136, 2.173e-9
0.138, 2.185e-9
0.140, 2.199e-9
0.142, 2.210e-9
0.144, 2.223e-9
0.146, 2.237e-9
0.148, 2.250e-9
0.150, 2.262e-9
0.152, 2.276e-9
0.154, 2.288e-9
0.156, 2.303e-9
0.158, 2.316e-9
0.160, 2.330e-9
0.162, 2.344e-9
0.164, 2.358e-9
0.166, 2.372e-9
0.168, 2.386e-9
0.170, 2.400e-9
0.172, 2.415e-9
0.174, 2.430e-9
0.176, 2.443e-9
0.178, 2.458e-9
0.180, 2.473e-9
0.182, 2.488e-9
0.184, 2.502e-9
0.186, 2.516e-9
0.188, 2.530e-9
0.190, 2.544e-9
0.192, 2.558e-9
0.194, 2.571e-9
0.196, 2.584e-9
0.198, 2.599e-9
0.200, 2.612e-9
0.202, 2.625e-9
0.204, 2.640e-9
0.206, 2.651e-9
0.208, 2.666e-9
0.210, 2.681e-9
0.212, 2.695e-9
0.214, 2.709e-9
0.216, 2.723e-9
0.218, 2.736e-9
0.220, 2.749e-9
0.222, 2.762e-9
0.224, 2.775e-9
0.226, 2.789e-9
0.228, 2.803e-9
0.230, 2.816e-9
0.232, 2.830e-9
0.234, 2.841e-9
0.236, 2.855e-9
0.238, 2.867e-9
0.240, 2.881e-9
0.242, 2.893e-9
0.244, 2.906e-9
0.246, 2.918e-9
0.248, 2.932e-9
0.250, 2.944e-9
0.252, 2.957e-9
0.254, 2.968e-9
0.256, 2.980e-9
0.258, 2.991e-9
0.260, 3.003e-9
0.262, 3.016e-9
0.264, 3.027e-9
0.266, 3.038e-9
0.268, 3.050e-9
0.270, 3.062e-9
0.272, 3.073e-9
0.274, 3.085e-9
0.276, 3.097e-9
0.278, 3.108e-9
0.280, 3.119e-9
0.282, 3.130e-9
0.284, 3.143e-9
0.286, 3.153e-9
0.288, 3.163e-9
0.290, 3.174e-9
0.292, 3.185e-9
0.294, 3.192e-9
0.296, 3.204e-9
0.298, 3.214e-9
0.300, 3.228e-9
0.302, 3.240e-9
0.304, 3.248e-9
0.306, 3.257e-9
0.308, 3.273e-9
0.310, 3.281e-9
0.312, 3.289e-9
0.314, 3.298e-9
0.316, 3.309e-9
0.318, 3.319e-9
0.320, 3.328e-9
0.322, 3.338e-9
0.324, 3.347e-9
0.326, 3.357e-9
0.328, 3.367e-9
0.330, 3.375e-9
0.332, 3.387e-9
0.334, 3.395e-9
0.336, 3.405e-9
0.338, 3.416e-9
0.340, 3.426e-9
0.342, 3.433e-9
0.344, 3.442e-9
0.346, 3.452e-9
0.348, 3.461e-9
0.350, 3.470e-9
0.352, 3.481e-9
0.354, 3.490e-9
0.356, 3.500e-9
0.358, 3.509e-9
0.360, 3.516e-9
0.362, 3.526e-9
0.364, 3.536e-9
0.366, 3.546e-9
0.368, 3.556e-9
0.370, 3.565e-9
0.372, 3.574e-9
0.374, 3.584e-9
0.376, 3.593e-9
0.378, 3.604e-9
0.380, 3.614e-9
0.382, 3.623e-9
0.384, 3.633e-9
0.386, 3.643e-9
0.388, 3.654e-9
0.390, 3.662e-9
0.392, 3.672e-9
0.394, 3.680e-9
0.396, 3.693e-9
0.398, 3.704e-9
0.400, 3.713e-9
0.402, 3.725e-9
0.404, 3.736e-9
0.406, 3.747e-9
0.408, 3.758e-9
0.410, 3.762e-9
0.412, 3.778e-9
0.414, 3.790e-9
0.416, 3.803e-9
0.418, 3.814e-9
0.420, 3.826e-9
0.422, 3.837e-9
0.424, 3.847e-9
0.426, 3.858e-9
0.428, 3.870e-9
0.430, 3.882e-9
0.432, 3.893e-9
0.434, 3.903e-9
0.436, 3.914e-9
0.438, 3.927e-9
0.440, 3.937e-9
0.442, 3.949e-9
0.444, 3.962e-9
0.446, 3.974e-9
0.448, 3.984e-9
0.450, 3.996e-9
0.452, 4.007e-9
0.454, 4.020e-9
0.456, 4.031e-9
0.458, 4.042e-9
0.460, 4.055e-9
0.462, 4.066e-9
0.464, 4.078e-9
0.466, 4.090e-9
0.468, 4.104e-9
0.470, 4.114e-9
0.472, 4.128e-9
0.474, 4.139e-9
0.476, 4.153e-9
0.478, 4.168e-9
0.480, 4.182e-9
0.482, 4.195e-9
0.484, 4.207e-9
0.486, 4.223e-9
0.488, 4.239e-9
0.490, 4.251e-9
0.492, 4.266e-9
0.494, 4.282e-9
0.496, 4.296e-9
0.498, 4.312e-9
0.500, 4.280e-9
0.498, 3.967e-9
0.496, 3.832e-9
0.494, 3.726e-9
0.492, 3.631e-9
0.490, 3.550e-9
0.488, 3.473e-9
0.486, 3.402e-9
0.484, 3.335e-9
0.482, 3.272e-9
0.480, 3.211e-9
0.478, 3.153e-9
0.476, 3.098e-9
0.474, 3.046e-9
0.472, 2.994e-9
0.470, 2.946e-9
0.468, 2.897e-9
0.466, 2.850e-9
0.464, 2.807e-9
0.462, 2.762e-9
0.460, 2.719e-9
0.458, 2.677e-9
0.456, 2.637e-9
0.454, 2.596e-9
0.452, 2.558e-9
0.450, 2.519e-9
0.448, 2.482e-9
0.446, 2.446e-9
0.444, 2.408e-9
0.442, 2.371e-9
0.440, 2.337e-9
0.438, 2.303e-9
0.436, 2.269e-9
0.434, 2.235e-9
0.432, 2.202e-9
0.430, 2.169e-9
0.428, 2.137e-9
0.426, 2.105e-9
0.424, 2.074e-9
0.422, 2.043e-9
0.420, 2.012e-9
0.418, 1.980e-9
0.416, 1.951e-9
0.414, 1.921e-9
0.412, 1.891e-9
0.410, 1.865e-9
0.408, 1.837e-9
0.406, 1.808e-9
0.404, 1.779e-9
0.402, 1.750e-9
0.400, 1.723e-9
0.398, 1.694e-9
0.396, 1.667e-9
0.394, 1.640e-9
0.392, 1.612e-9
0.390, 1.585e-9
0.388, 1.558e-9
0.386, 1.531e-9
0.384, 1.506e-9
0.382, 1.480e-9
0.380, 1.455e-9
0.378, 1.428e-9
0.376, 1.403e-9
0.374, 1.378e-9
0.372, 1.352e-9
0.370, 1.328e-9
0.368, 1.303e-9
0.366, 1.278e-9
0.364, 1.254e-9
0.362, 1.229e-9
0.360, 1.206e-9
0.358, 1.182e-9
0.356, 1.158e-9
0.354, 1.135e-9
0.352, 1.111e-9
0.350, 1.088e-9
0.348, 1.065e-9
0.346, 1.042e-9
0.344, 1.020e-9
0.342, 9.970e-10
0.340, 9.738e-10
0.338, 9.511e-10
0.336, 9.292e-10
0.334, 9.076e-10
0.332, 8.851e-10
0.330, 8.631e-10
0.328, 8.412e-10
0.326, 8.190e-10
0.324, 7.961e-10
0.322, 7.761e-10
0.320, 7.554e-10
0.318, 7.331e-10
0.316, 7.139e-10
0.314, 6.925e-10
0.312, 6.723e-10
0.310, 6.519e-10
0.308, 6.321e-10
0.306, 6.095e-10
0.304, 5.931e-10
0.302, 5.732e-10
0.300, 5.545e-10
0.298, 5.335e-10
0.296, 5.141e-10
0.294, 4.953e-10
0.292, 4.757e-10
0.290, 4.578e-10
0.288, 4.395e-10
0.286, 4.203e-10
0.284, 4.033e-10
0.282, 3.855e-10
0.280, 3.675e-10
0.278, 3.524e-10
0.276, 3.350e-10
0.274, 3.175e-10
0.272, 3.027e-10
0.270, 2.858e-10
0.268, 2.709e-10
0.266, 2.534e-10
0.264, 2.371e-10
0.262, 2.213e-10
0.260, 2.065e-10
0.258, 1.902e-10
0.256, 1.773e-10
0.254, 1.613e-10
0.252, 1.472e-10
0.250, 1.325e-10
0.248, 1.180e-10
0.246, 1.047e-10
0.244, 9.048e-11
0.242, 7.788e-11
0.240, 6.511e-11
0.238, 5.156e-11
0.236, 3.905e-11
0.234, 2.601e-11
0.232, 1.387e-11
0.230, 3.045e-12
0.228, -9.705e-12
0.226, -2.204e-11
0.224, -3.359e-11
0.222, -4.591e-11
0.220, -5.514e-11
0.218, -6.684e-11
0.216, -7.723e-11
0.214, -8.673e-11
0.212, -9.780e-11
0.210, -1.081e-10
0.208, -1.177e-10
0.206, -1.274e-10
0.204, -1.336e-10
0.202, -1.459e-10
0.200, -1.561e-10
0.198, -1.659e-10
0.196, -1.745e-10
0.194, -1.849e-10
0.192, -1.926e-10
0.190, -2.020e-10
0.188, -2.113e-10
0.186, -2.205e-10
0.184, -2.296e-10
0.182, -2.378e-10
0.180, -2.471e-10
0.178, -2.549e-10
0.176, -2.642e-10
0.174, -2.736e-10
0.172, -2.822e-10
0.170, -2.907e-10
0.168, -2.991e-10
0.166, -3.064e-10
0.164, -3.162e-10
0.162, -3.240e-10
0.160, -3.326e-10
0.158, -3.417e-10
0.156, -3.491e-10
0.154, -3.572e-10
0.152, -3.664e-10
0.150, -3.739e-10
0.148, -3.828e-10
0.146, -3.921e-10
0.144, -3.993e-10
0.142, -4.080e-10
0.140, -4.176e-10
0.138, -4.251e-10
0.136, -4.347e-10
0.134, -4.428e-10
0.132, -4.511e-10
0.130, -4.611e-10
0.128, -4.679e-10
0.126, -4.783e-10
0.124, -4.871e-10
0.122, -4.954e-10
0.120, -5.059e-10
0.118, -5.134e-10
0.116, -5.228e-10
0.114, -5.318e-10
0.112, -5.396e-10
0.110, -5.501e-10
0.108, -5.595e-10
0.106, -5.685e-10
0.104, -5.775e-10
0.102, -5.926e-10
0.100, -5.995e-10
0.098, -6.095e-10
0.096, -6.177e-10
0.094, -6.269e-10
0.092, -6.363e-10
0.090, -6.459e-10
0.088, -6.558e-10
0.086, -6.657e-10
0.084, -6.767e-10
0.082, -6.866e-10
0.080, -6.966e-10
0.078, -7.078e-10
0.076, -7.177e-10
0.074, -7.291e-10
0.072, -7.399e-10
0.070, -7.499e-10
0.068, -7.610e-10
0.066, -7.722e-10
0.064, -7.822e-10
0.062, -7.942e-10
0.060, -8.042e-10
0.058, -8.158e-10
0.056, -8.271e-10
0.054, -8.379e-10
0.052, -8.504e-10
0.050, -8.607e-10
0.048, -8.725e-10
0.046, -8.839e-10
0.044, -8.959e-10
0.042, -9.074e-10
0.040, -9.195e-10
0.038, -9.296e-10
0.036, -9.439e-10
0.034, -9.552e-10
0.032, -9.683e-10
0.030, -9.804e-10
0.028, -9.904e-10
0.026, -1.005e-9
0.024, -1.017e-9
0.022, -1.028e-9
0.020, -1.041e-9
0.018, -1.055e-9
0.016, -1.067e-9
0.014, -1.080e-9
0.012, -1.092e-9
0.010, -1.104e-9
0.008, -1.119e-9
0.006, -1.131e-9
0.004, -1.145e-9
0.002, -1.158e-9
-0.000, -1.167e-9
-0.002, -1.183e-9
-0.004, -1.197e-9
-0.006, -1.210e-9
-0.008, -1.224e-9
-0.010, -1.238e-9
-0.012, -1.253e-9
-0.014, -1.266e-9
-0.016, -1.279e-9
-0.018, -1.295e-9
-0.020, -1.309e-9
-0.022, -1.324e-9
-0.024, -1.339e-9
-0.026, -1.353e-9
-0.028, -1.368e-9
-0.030, -1.384e-9
-0.032, -1.400e-9
-0.034, -1.416e-9
-0.036, -1.436e-9
-0.038, -1.451e-9
-0.040, -1.472e-9
-0.042, -1.488e-9
-0.044, -1.495e-9
-0.046, -1.506e-9
-0.048, -1.517e-9
-0.050, -1.532e-9
-0.052, -1.547e-9
-0.054, -1.554e-9
-0.056, -1.566e-9
-0.058, -1.578e-9
-0.060, -1.590e-9
-0.062, -1.604e-9
-0.064, -1.618e-9
-0.066, -1.628e-9
-0.068, -1.640e-9
-0.070, -1.652e-9
-0.072, -1.666e-9
-0.074, -1.678e-9
-0.076, -1.694e-9
-0.078, -1.706e-9
-0.080, -1.718e-9
-0.082, -1.732e-9
-0.084, -1.752e-9
-0.086, -1.762e-9
-0.088, -1.773e-9
-0.090, -1.786e-9
-0.092, -1.799e-9
-0.094, -1.812e-9
-0.096, -1.825e-9
-0.098, -1.837e-9
-0.100, -1.852e-9
-0.102, -1.867e-9
-0.104, -1.880e-9
-0.106, -1.891e-9
-0.108, -1.903e-9
-0.110, -1.916e-9
-0.112, -1.927e-9
-0.114, -1.940e-9
-0.116, -1.954e-9
-0.118, -1.968e-9
-0.120, -1.979e-9
-0.122, -1.991e-9
-0.124, -2.005e-9
-0.126, -2.017e-9
-0.128, -2.030e-9
-0.130, -2.043e-9
-0.132, -2.054e-9
-0.134, -2.067e-9
-0.136, -2.079e-9
-0.138, -2.090e-9
-0.140, -2.102e-9
-0.142, -2.114e-9
-0.144, -2.127e-9
-0.146, -2.139e-9
-0.148, -2.151e-9
-0.150, -2.164e-9
-0.152, -2.177e-9
-0.154, -2.185e-9
-0.156, -2.201e-9
-0.158, -2.209e-9
-0.160, -2.222e-9
-0.162, -2.233e-9
-0.164, -2.245e-9
-0.166, -2.257e-9
-0.168, -2.268e-9
-0.170, -2.282e-9
-0.172, -2.293e-9
-0.174, -2.303e-9
-0.176, -2.315e-9
-0.178, -2.326e-9
-0.180, -2.336e-9
-0.182, -2.347e-9
-0.184, -2.359e-9
-0.186, -2.370e-9
-0.188, -2.382e-9
-0.190, -2.393e-9
-0.192, -2.404e-9
-0.194, -2.417e-9
-0.196, -2.427e-9
-0.198, -2.438e-9
-0.200, -2.450e-9
-0.202, -2.460e-9
-0.204, -2.470e-9
-0.206, -2.478e-9
-0.208, -2.489e-9
-0.210, -2.504e-9
-0.212, -2.515e-9
-0.214, -2.525e-9
-0.216, -2.534e-9
-0.218, -2.545e-9
-0.220, -2.556e-9
-0.222, -2.566e-9
-0.224, -2.577e-9
-0.226, -2.588e-9
-0.228, -2.599e-9
-0.230, -2.610e-9
-0.232, -2.621e-9
-0.234, -2.631e-9
-0.236, -2.642e-9
-0.238, -2.653e-9
-0.240, -2.664e-9
-0.242, -2.673e-9
-0.244, -2.684e-9
-0.246, -2.694e-9
-0.248, -2.705e-9
-0.250, -2.715e-9
-0.252, -2.725e-9
-0.254, -2.736e-9
-0.256, -2.746e-9
-0.258, -2.756e-9
-0.260, -2.766e-9
-0.262, -2.776e-9
-0.264, -2.787e-9
-0.266, -2.796e-9
-0.268, -2.807e-9
-0.270, -2.817e-9
-0.272, -2.826e-9
-0.274, -2.838e-9
-0.276, -2.847e-9
-0.278, -2.858e-9
-0.280, -2.869e-9
-0.282, -2.878e-9
-0.284, -2.890e-9
-0.286, -2.899e-9
-0.288, -2.910e-9
-0.290, -2.920e-9
-0.292, -2.931e-9
-0.294, -2.940e-9
-0.296, -2.951e-9
-0.298, -2.961e-9
-0.300, -2.972e-9
-0.302, -2.983e-9
-0.304, -2.992e-9
-0.306, -3.003e-9
-0.308, -3.018e-9
-0.310, -3.025e-9
-0.312, -3.031e-9
-0.314, -3.040e-9
-0.316, -3.047e-9
-0.318, -3.058e-9
-0.320, -3.074e-9
-0.322, -3.087e-9
-0.324, -3.099e-9
-0.326, -3.109e-9
-0.328, -3.118e-9
-0.330, -3.129e-9
-0.332, -3.140e-9
-0.334, -3.152e-9
-0.336, -3.163e-9
-0.338, -3.176e-9
-0.340, -3.187e-9
-0.342, -3.196e-9
-0.344, -3.207e-9
-0.346, -3.214e-9
-0.348, -3.223e-9
-0.350, -3.234e-9
-0.352, -3.245e-9
-0.354, -3.253e-9
-0.356, -3.263e-9
-0.358, -3.275e-9
-0.360, -3.285e-9
-0.362, -3.297e-9
-0.364, -3.308e-9
-0.366, -3.317e-9
-0.368, -3.327e-9
-0.370, -3.339e-9
-0.372, -3.348e-9
-0.374, -3.360e-9
-0.376, -3.370e-9
-0.378, -3.381e-9
-0.380, -3.392e-9
-0.382, -3.403e-9
-0.384, -3.412e-9
-0.386, -3.424e-9
-0.388, -3.435e-9
-0.390, -3.447e-9
-0.392, -3.458e-9
-0.394, -3.469e-9
-0.396, -3.479e-9
-0.398, -3.491e-9
-0.400, -3.500e-9
-0.402, -3.512e-9
-0.404, -3.525e-9
-0.406, -3.535e-9
-0.408, -3.547e-9
-0.410, -3.558e-9
-0.412, -3.571e-9
-0.414, -3.581e-9
-0.416, -3.594e-9
-0.418, -3.603e-9
-0.420, -3.614e-9
-0.422, -3.625e-9
-0.424, -3.636e-9
-0.426, -3.647e-9
-0.428, -3.660e-9
-0.430, -3.671e-9
-0.432, -3.682e-9
-0.434, -3.694e-9
-0.436, -3.707e-9
-0.438, -3.718e-9
-0.440, -3.731e-9
-0.442, -3.742e-9
-0.444, -3.755e-9
-0.446, -3.767e-9
-0.448, -3.780e-9
-0.450, -3.792e-9
-0.452, -3.804e-9
-0.454, -3.818e-9
-0.456, -3.821e-9
-0.458, -3.841e-9
-0.460, -3.855e-9
-0.462, -3.867e-9
-0.464, -3.881e-9
-0.466, -3.894e-9
-0.468, -3.906e-9
-0.470, -3.919e-9
-0.472, -3.933e-9
-0.474, -3.945e-9
-0.476, -3.958e-9
-0.478, -3.972e-9
-0.480, -3.985e-9
-0.482, -3.998e-9
-0.484, -4.011e-9
-0.486, -4.025e-9
-0.488, -4.039e-9
-0.490, -4.052e-9
-0.492, -4.066e-9
-0.494, -4.080e-9
-0.496, -4.094e-9
-0.498, -4.110e-9
-0.499, -4.116e-9