File: Supplementary Fig 4/Fig S4e Surface CV +DCMU/CV SURFACE INCUBATED 3 .txt
Mar. 7, 2025   14:36:01
Cyclic Voltammetry
File: cv surface incubated 3 .bin
Data Source:  Experiment
Instrument Model:  CHI920C
Ref. Electrode:
Header:
Note:

Init E (V) = -0.5
High E (V) = 0.5
Low E (V) = -0.5
Init P/N = P
Scan Rate (V/s) = 0.05
Segment = 2
Sample Interval (V) = 0.001
Quiet Time (sec) = 10
Sensitivity (A/V) = 1e-8

Results:

Channel 1:
Segment 1:

Segment 2:

Potential/V, Current/A

-0.500, -1.869e-9
-0.498, -1.726e-9
-0.496, -1.669e-9
-0.494, -1.624e-9
-0.492, -1.585e-9
-0.490, -1.550e-9
-0.488, -1.518e-9
-0.486, -1.487e-9
-0.484, -1.457e-9
-0.482, -1.429e-9
-0.480, -1.399e-9
-0.478, -1.375e-9
-0.476, -1.348e-9
-0.474, -1.323e-9
-0.472, -1.299e-9
-0.470, -1.276e-9
-0.468, -1.251e-9
-0.466, -1.229e-9
-0.464, -1.206e-9
-0.462, -1.183e-9
-0.460, -1.162e-9
-0.458, -1.139e-9
-0.456, -1.120e-9
-0.454, -1.097e-9
-0.452, -1.077e-9
-0.450, -1.056e-9
-0.448, -1.037e-9
-0.446, -1.016e-9
-0.444, -9.958e-10
-0.442, -9.771e-10
-0.440, -9.569e-10
-0.438, -9.390e-10
-0.436, -9.197e-10
-0.434, -9.013e-10
-0.432, -8.816e-10
-0.430, -8.632e-10
-0.428, -8.443e-10
-0.426, -8.272e-10
-0.424, -8.085e-10
-0.422, -7.926e-10
-0.420, -7.729e-10
-0.418, -7.557e-10
-0.416, -7.390e-10
-0.414, -7.219e-10
-0.412, -7.033e-10
-0.410, -6.853e-10
-0.408, -6.683e-10
-0.406, -6.522e-10
-0.404, -6.370e-10
-0.402, -6.196e-10
-0.400, -6.044e-10
-0.398, -5.861e-10
-0.396, -5.705e-10
-0.394, -5.533e-10
-0.392, -5.386e-10
-0.390, -5.216e-10
-0.388, -5.065e-10
-0.386, -4.914e-10
-0.384, -4.767e-10
-0.382, -4.616e-10
-0.380, -4.443e-10
-0.378, -4.290e-10
-0.376, -4.142e-10
-0.374, -3.999e-10
-0.372, -3.834e-10
-0.370, -3.700e-10
-0.368, -3.543e-10
-0.366, -3.398e-10
-0.364, -3.247e-10
-0.362, -3.097e-10
-0.360, -2.954e-10
-0.358, -2.819e-10
-0.356, -2.669e-10
-0.354, -2.530e-10
-0.352, -2.391e-10
-0.350, -2.236e-10
-0.348, -2.109e-10
-0.346, -1.962e-10
-0.344, -1.825e-10
-0.342, -1.694e-10
-0.340, -1.543e-10
-0.338, -1.406e-10
-0.336, -1.282e-10
-0.334, -1.152e-10
-0.332, -1.011e-10
-0.330, -8.753e-11
-0.328, -7.352e-11
-0.326, -6.146e-11
-0.324, -4.823e-11
-0.322, -3.443e-11
-0.320, -2.175e-11
-0.318, -9.637e-12
-0.316, 2.304e-12
-0.314, 1.685e-11
-0.312, 2.942e-11
-0.310, 4.023e-11
-0.308, 5.424e-11
-0.306, 7.048e-11
-0.304, 8.030e-11
-0.302, 9.353e-11
-0.300, 1.058e-10
-0.298, 1.167e-10
-0.296, 1.287e-10
-0.294, 1.406e-10
-0.292, 1.535e-10
-0.290, 1.654e-10
-0.288, 1.770e-10
-0.286, 1.897e-10
-0.284, 2.003e-10
-0.282, 2.138e-10
-0.280, 2.235e-10
-0.278, 2.357e-10
-0.276, 2.477e-10
-0.274, 2.597e-10
-0.272, 2.706e-10
-0.270, 2.828e-10
-0.268, 2.928e-10
-0.266, 3.052e-10
-0.264, 3.163e-10
-0.262, 3.267e-10
-0.260, 3.394e-10
-0.258, 3.491e-10
-0.256, 3.607e-10
-0.254, 3.727e-10
-0.252, 3.827e-10
-0.250, 3.940e-10
-0.248, 4.050e-10
-0.246, 4.152e-10
-0.244, 4.271e-10
-0.242, 4.365e-10
-0.240, 4.476e-10
-0.238, 4.591e-10
-0.236, 4.702e-10
-0.234, 4.797e-10
-0.232, 4.906e-10
-0.230, 5.013e-10
-0.228, 5.125e-10
-0.226, 5.224e-10
-0.224, 5.322e-10
-0.222, 5.439e-10
-0.220, 5.534e-10
-0.218, 5.645e-10
-0.216, 5.731e-10
-0.214, 5.833e-10
-0.212, 5.951e-10
-0.210, 6.051e-10
-0.208, 6.138e-10
-0.206, 6.244e-10
-0.204, 6.311e-10
-0.202, 6.434e-10
-0.200, 6.533e-10
-0.198, 6.641e-10
-0.196, 6.749e-10
-0.194, 6.839e-10
-0.192, 6.946e-10
-0.190, 7.044e-10
-0.188, 7.153e-10
-0.186, 7.257e-10
-0.184, 7.372e-10
-0.182, 7.458e-10
-0.180, 7.572e-10
-0.178, 7.667e-10
-0.176, 7.735e-10
-0.174, 7.830e-10
-0.172, 7.898e-10
-0.170, 8.016e-10
-0.168, 8.098e-10
-0.166, 8.177e-10
-0.164, 8.275e-10
-0.162, 8.369e-10
-0.160, 8.472e-10
-0.158, 8.577e-10
-0.156, 8.665e-10
-0.154, 8.756e-10
-0.152, 8.848e-10
-0.150, 8.942e-10
-0.148, 9.040e-10
-0.146, 9.142e-10
-0.144, 9.207e-10
-0.142, 9.288e-10
-0.140, 9.373e-10
-0.138, 9.475e-10
-0.136, 9.564e-10
-0.134, 9.663e-10
-0.132, 9.769e-10
-0.130, 9.861e-10
-0.128, 9.945e-10
-0.126, 1.003e-9
-0.124, 1.012e-9
-0.122, 1.021e-9
-0.120, 1.030e-9
-0.118, 1.037e-9
-0.116, 1.050e-9
-0.114, 1.058e-9
-0.112, 1.067e-9
-0.110, 1.076e-9
-0.108, 1.085e-9
-0.106, 1.094e-9
-0.104, 1.102e-9
-0.102, 1.116e-9
-0.100, 1.122e-9
-0.098, 1.131e-9
-0.096, 1.139e-9
-0.094, 1.149e-9
-0.092, 1.157e-9
-0.090, 1.166e-9
-0.088, 1.176e-9
-0.086, 1.185e-9
-0.084, 1.196e-9
-0.082, 1.206e-9
-0.080, 1.216e-9
-0.078, 1.226e-9
-0.076, 1.240e-9
-0.074, 1.249e-9
-0.072, 1.254e-9
-0.070, 1.258e-9
-0.068, 1.261e-9
-0.066, 1.266e-9
-0.064, 1.279e-9
-0.062, 1.284e-9
-0.060, 1.292e-9
-0.058, 1.305e-9
-0.056, 1.313e-9
-0.054, 1.322e-9
-0.052, 1.334e-9
-0.050, 1.347e-9
-0.048, 1.357e-9
-0.046, 1.367e-9
-0.044, 1.375e-9
-0.042, 1.382e-9
-0.040, 1.390e-9
-0.038, 1.399e-9
-0.036, 1.408e-9
-0.034, 1.418e-9
-0.032, 1.427e-9
-0.030, 1.436e-9
-0.028, 1.446e-9
-0.026, 1.455e-9
-0.024, 1.465e-9
-0.022, 1.472e-9
-0.020, 1.484e-9
-0.018, 1.493e-9
-0.016, 1.501e-9
-0.014, 1.511e-9
-0.012, 1.520e-9
-0.010, 1.529e-9
-0.008, 1.537e-9
-0.006, 1.547e-9
-0.004, 1.557e-9
-0.002, 1.566e-9
0.000, 1.572e-9
0.002, 1.583e-9
0.004, 1.593e-9
0.006, 1.604e-9
0.008, 1.612e-9
0.010, 1.622e-9
0.012, 1.631e-9
0.014, 1.641e-9
0.016, 1.650e-9
0.018, 1.661e-9
0.020, 1.670e-9
0.022, 1.679e-9
0.024, 1.689e-9
0.026, 1.699e-9
0.028, 1.709e-9
0.030, 1.718e-9
0.032, 1.729e-9
0.034, 1.738e-9
0.036, 1.748e-9
0.038, 1.759e-9
0.040, 1.768e-9
0.042, 1.777e-9
0.044, 1.788e-9
0.046, 1.798e-9
0.048, 1.808e-9
0.050, 1.818e-9
0.052, 1.827e-9
0.054, 1.838e-9
0.056, 1.848e-9
0.058, 1.859e-9
0.060, 1.870e-9
0.062, 1.880e-9
0.064, 1.890e-9
0.066, 1.900e-9
0.068, 1.910e-9
0.070, 1.921e-9
0.072, 1.933e-9
0.074, 1.942e-9
0.076, 1.955e-9
0.078, 1.964e-9
0.080, 1.975e-9
0.082, 1.987e-9
0.084, 1.999e-9
0.086, 2.009e-9
0.088, 2.020e-9
0.090, 2.031e-9
0.092, 2.043e-9
0.094, 2.056e-9
0.096, 2.067e-9
0.098, 2.080e-9
0.100, 2.095e-9
0.102, 2.110e-9
0.104, 2.124e-9
0.106, 2.129e-9
0.108, 2.141e-9
0.110, 2.152e-9
0.112, 2.165e-9
0.114, 2.177e-9
0.116, 2.187e-9
0.118, 2.200e-9
0.120, 2.209e-9
0.122, 2.223e-9
0.124, 2.234e-9
0.126, 2.247e-9
0.128, 2.260e-9
0.130, 2.274e-9
0.132, 2.287e-9
0.134, 2.302e-9
0.136, 2.315e-9
0.138, 2.328e-9
0.140, 2.343e-9
0.142, 2.356e-9
0.144, 2.372e-9
0.146, 2.385e-9
0.148, 2.400e-9
0.150, 2.414e-9
0.152, 2.430e-9
0.154, 2.444e-9
0.156, 2.459e-9
0.158, 2.474e-9
0.160, 2.489e-9
0.162, 2.504e-9
0.164, 2.517e-9
0.166, 2.533e-9
0.168, 2.547e-9
0.170, 2.564e-9
0.172, 2.577e-9
0.174, 2.593e-9
0.176, 2.608e-9
0.178, 2.622e-9
0.180, 2.637e-9
0.182, 2.654e-9
0.184, 2.668e-9
0.186, 2.684e-9
0.188, 2.699e-9
0.190, 2.714e-9
0.192, 2.729e-9
0.194, 2.743e-9
0.196, 2.757e-9
0.198, 2.774e-9
0.200, 2.788e-9
0.202, 2.801e-9
0.204, 2.817e-9
0.206, 2.828e-9
0.208, 2.844e-9
0.210, 2.859e-9
0.212, 2.874e-9
0.214, 2.888e-9
0.216, 2.902e-9
0.218, 2.916e-9
0.220, 2.930e-9
0.222, 2.943e-9
0.224, 2.958e-9
0.226, 2.972e-9
0.228, 2.986e-9
0.230, 2.999e-9
0.232, 3.012e-9
0.234, 3.026e-9
0.236, 3.039e-9
0.238, 3.053e-9
0.240, 3.065e-9
0.242, 3.078e-9
0.244, 3.090e-9
0.246, 3.104e-9
0.248, 3.117e-9
0.250, 3.131e-9
0.252, 3.143e-9
0.254, 3.157e-9
0.256, 3.170e-9
0.258, 3.183e-9
0.260, 3.195e-9
0.262, 3.208e-9
0.264, 3.223e-9
0.266, 3.233e-9
0.268, 3.247e-9
0.270, 3.260e-9
0.272, 3.273e-9
0.274, 3.287e-9
0.276, 3.298e-9
0.278, 3.311e-9
0.280, 3.323e-9
0.282, 3.333e-9
0.284, 3.346e-9
0.286, 3.357e-9
0.288, 3.370e-9
0.290, 3.382e-9
0.292, 3.395e-9
0.294, 3.408e-9
0.296, 3.420e-9
0.298, 3.430e-9
0.300, 3.442e-9
0.302, 3.453e-9
0.304, 3.464e-9
0.306, 3.475e-9
0.308, 3.494e-9
0.310, 3.502e-9
0.312, 3.514e-9
0.314, 3.525e-9
0.316, 3.537e-9
0.318, 3.548e-9
0.320, 3.559e-9
0.322, 3.569e-9
0.324, 3.581e-9
0.326, 3.592e-9
0.328, 3.604e-9
0.330, 3.614e-9
0.332, 3.625e-9
0.334, 3.637e-9
0.336, 3.647e-9
0.338, 3.659e-9
0.340, 3.671e-9
0.342, 3.684e-9
0.344, 3.696e-9
0.346, 3.706e-9
0.348, 3.716e-9
0.350, 3.729e-9
0.352, 3.739e-9
0.354, 3.749e-9
0.356, 3.762e-9
0.358, 3.772e-9
0.360, 3.778e-9
0.362, 3.796e-9
0.364, 3.810e-9
0.366, 3.820e-9
0.368, 3.831e-9
0.370, 3.842e-9
0.372, 3.849e-9
0.374, 3.859e-9
0.376, 3.870e-9
0.378, 3.885e-9
0.380, 3.896e-9
0.382, 3.908e-9
0.384, 3.921e-9
0.386, 3.934e-9
0.388, 3.945e-9
0.390, 3.959e-9
0.392, 3.969e-9
0.394, 3.982e-9
0.396, 3.994e-9
0.398, 4.007e-9
0.400, 4.020e-9
0.402, 4.034e-9
0.404, 4.047e-9
0.406, 4.060e-9
0.408, 4.072e-9
0.410, 4.075e-9
0.412, 4.092e-9
0.414, 4.106e-9
0.416, 4.120e-9
0.418, 4.132e-9
0.420, 4.144e-9
0.422, 4.157e-9
0.424, 4.168e-9
0.426, 4.180e-9
0.428, 4.193e-9
0.430, 4.206e-9
0.432, 4.217e-9
0.434, 4.230e-9
0.436, 4.244e-9
0.438, 4.255e-9
0.440, 4.266e-9
0.442, 4.278e-9
0.444, 4.291e-9
0.446, 4.303e-9
0.448, 4.314e-9
0.450, 4.327e-9
0.452, 4.340e-9
0.454, 4.354e-9
0.456, 4.368e-9
0.458, 4.378e-9
0.460, 4.392e-9
0.462, 4.405e-9
0.464, 4.419e-9
0.466, 4.432e-9
0.468, 4.444e-9
0.470, 4.458e-9
0.472, 4.470e-9
0.474, 4.483e-9
0.476, 4.498e-9
0.478, 4.510e-9
0.480, 4.526e-9
0.482, 4.540e-9
0.484, 4.556e-9
0.486, 4.570e-9
0.488, 4.586e-9
0.490, 4.599e-9
0.492, 4.615e-9
0.494, 4.633e-9
0.496, 4.646e-9
0.498, 4.662e-9
0.500, 4.630e-9
0.498, 4.322e-9
0.496, 4.173e-9
0.494, 4.053e-9
0.492, 3.949e-9
0.490, 3.855e-9
0.488, 3.768e-9
0.486, 3.688e-9
0.484, 3.613e-9
0.482, 3.540e-9
0.480, 3.472e-9
0.478, 3.406e-9
0.476, 3.344e-9
0.474, 3.285e-9
0.472, 3.228e-9
0.470, 3.173e-9
0.468, 3.118e-9
0.466, 3.064e-9
0.464, 3.014e-9
0.462, 2.966e-9
0.460, 2.918e-9
0.458, 2.870e-9
0.456, 2.824e-9
0.454, 2.780e-9
0.452, 2.735e-9
0.450, 2.693e-9
0.448, 2.651e-9
0.446, 2.609e-9
0.444, 2.568e-9
0.442, 2.527e-9
0.440, 2.488e-9
0.438, 2.450e-9
0.436, 2.413e-9
0.434, 2.375e-9
0.432, 2.339e-9
0.430, 2.303e-9
0.428, 2.266e-9
0.426, 2.231e-9
0.424, 2.197e-9
0.422, 2.162e-9
0.420, 2.127e-9
0.418, 2.094e-9
0.416, 2.060e-9
0.414, 2.027e-9
0.412, 1.994e-9
0.410, 1.964e-9
0.408, 1.933e-9
0.406, 1.901e-9
0.404, 1.868e-9
0.402, 1.838e-9
0.400, 1.807e-9
0.398, 1.777e-9
0.396, 1.747e-9
0.394, 1.717e-9
0.392, 1.687e-9
0.390, 1.658e-9
0.388, 1.629e-9
0.386, 1.601e-9
0.384, 1.573e-9
0.382, 1.545e-9
0.380, 1.517e-9
0.378, 1.489e-9
0.376, 1.462e-9
0.374, 1.432e-9
0.372, 1.405e-9
0.370, 1.377e-9
0.368, 1.352e-9
0.366, 1.324e-9
0.364, 1.296e-9
0.362, 1.270e-9
0.360, 1.244e-9
0.358, 1.219e-9
0.356, 1.192e-9
0.354, 1.169e-9
0.352, 1.144e-9
0.350, 1.119e-9
0.348, 1.094e-9
0.346, 1.068e-9
0.344, 1.043e-9
0.342, 1.018e-9
0.340, 9.941e-10
0.338, 9.706e-10
0.336, 9.476e-10
0.334, 9.241e-10
0.332, 9.010e-10
0.330, 8.781e-10
0.328, 8.557e-10
0.326, 8.304e-10
0.324, 8.070e-10
0.322, 7.850e-10
0.320, 7.632e-10
0.318, 7.401e-10
0.316, 7.170e-10
0.314, 6.948e-10
0.312, 6.727e-10
0.310, 6.517e-10
0.308, 6.289e-10
0.306, 6.035e-10
0.304, 5.852e-10
0.302, 5.634e-10
0.300, 5.420e-10
0.298, 5.213e-10
0.296, 5.019e-10
0.294, 4.825e-10
0.292, 4.612e-10
0.290, 4.414e-10
0.288, 4.208e-10
0.286, 4.019e-10
0.284, 3.829e-10
0.282, 3.633e-10
0.280, 3.445e-10
0.278, 3.265e-10
0.276, 3.084e-10
0.274, 2.895e-10
0.272, 2.710e-10
0.270, 2.519e-10
0.268, 2.339e-10
0.266, 2.167e-10
0.264, 1.991e-10
0.262, 1.828e-10
0.260, 1.637e-10
0.258, 1.477e-10
0.256, 1.326e-10
0.254, 1.164e-10
0.252, 1.002e-10
0.250, 8.536e-11
0.248, 6.906e-11
0.246, 5.484e-11
0.244, 3.845e-11
0.242, 2.399e-11
0.240, 1.004e-11
0.238, -4.578e-12
0.236, -1.890e-11
0.234, -3.407e-11
0.232, -4.631e-11
0.230, -6.021e-11
0.228, -7.356e-11
0.226, -8.620e-11
0.224, -9.727e-11
0.222, -1.113e-10
0.220, -1.226e-10
0.218, -1.366e-10
0.216, -1.480e-10
0.214, -1.588e-10
0.212, -1.708e-10
0.210, -1.812e-10
0.208, -1.915e-10
0.206, -2.034e-10
0.204, -2.104e-10
0.202, -2.229e-10
0.200, -2.355e-10
0.198, -2.452e-10
0.196, -2.557e-10
0.194, -2.662e-10
0.192, -2.755e-10
0.190, -2.861e-10
0.188, -2.956e-10
0.186, -3.070e-10
0.184, -3.158e-10
0.182, -3.258e-10
0.180, -3.349e-10
0.178, -3.437e-10
0.176, -3.529e-10
0.174, -3.629e-10
0.172, -3.719e-10
0.170, -3.811e-10
0.168, -3.897e-10
0.166, -3.981e-10
0.164, -4.076e-10
0.162, -4.172e-10
0.160, -4.262e-10
0.158, -4.345e-10
0.156, -4.432e-10
0.154, -4.519e-10
0.152, -4.599e-10
0.150, -4.682e-10
0.148, -4.776e-10
0.146, -4.871e-10
0.144, -4.961e-10
0.142, -5.048e-10
0.140, -5.132e-10
0.138, -5.223e-10
0.136, -5.306e-10
0.134, -5.406e-10
0.132, -5.493e-10
0.130, -5.566e-10
0.128, -5.664e-10
0.126, -5.752e-10
0.124, -5.847e-10
0.122, -5.937e-10
0.120, -6.036e-10
0.118, -6.117e-10
0.116, -6.219e-10
0.114, -6.305e-10
0.112, -6.395e-10
0.110, -6.484e-10
0.108, -6.592e-10
0.106, -6.678e-10
0.104, -6.780e-10
0.102, -6.928e-10
0.100, -6.995e-10
0.098, -7.075e-10
0.096, -7.172e-10
0.094, -7.259e-10
0.092, -7.361e-10
0.090, -7.471e-10
0.088, -7.563e-10
0.086, -7.664e-10
0.084, -7.756e-10
0.082, -7.869e-10
0.080, -7.956e-10
0.078, -8.066e-10
0.076, -8.159e-10
0.074, -8.267e-10
0.072, -8.372e-10
0.070, -8.473e-10
0.068, -8.586e-10
0.066, -8.695e-10
0.064, -8.789e-10
0.062, -8.901e-10
0.060, -9.010e-10
0.058, -9.122e-10
0.056, -9.233e-10
0.054, -9.338e-10
0.052, -9.446e-10
0.050, -9.554e-10
0.048, -9.666e-10
0.046, -9.781e-10
0.044, -9.891e-10
0.042, -1.000e-9
0.040, -1.012e-9
0.038, -1.022e-9
0.036, -1.034e-9
0.034, -1.045e-9
0.032, -1.057e-9
0.030, -1.068e-9
0.028, -1.080e-9
0.026, -1.091e-9
0.024, -1.103e-9
0.022, -1.115e-9
0.020, -1.126e-9
0.018, -1.138e-9
0.016, -1.149e-9
0.014, -1.161e-9
0.012, -1.173e-9
0.010, -1.184e-9
0.008, -1.196e-9
0.006, -1.208e-9
0.004, -1.221e-9
0.002, -1.231e-9
-0.000, -1.239e-9
-0.002, -1.254e-9
-0.004, -1.266e-9
-0.006, -1.278e-9
-0.008, -1.291e-9
-0.010, -1.303e-9
-0.012, -1.315e-9
-0.014, -1.328e-9
-0.016, -1.339e-9
-0.018, -1.352e-9
-0.020, -1.365e-9
-0.022, -1.378e-9
-0.024, -1.394e-9
-0.026, -1.405e-9
-0.028, -1.419e-9
-0.030, -1.437e-9
-0.032, -1.449e-9
-0.034, -1.462e-9
-0.036, -1.487e-9
-0.038, -1.502e-9
-0.040, -1.513e-9
-0.042, -1.527e-9
-0.044, -1.541e-9
-0.046, -1.553e-9
-0.048, -1.558e-9
-0.050, -1.561e-9
-0.052, -1.563e-9
-0.054, -1.578e-9
-0.056, -1.596e-9
-0.058, -1.607e-9
-0.060, -1.613e-9
-0.062, -1.621e-9
-0.064, -1.624e-9
-0.066, -1.635e-9
-0.068, -1.646e-9
-0.070, -1.662e-9
-0.072, -1.682e-9
-0.074, -1.678e-9
-0.076, -1.696e-9
-0.078, -1.700e-9
-0.080, -1.711e-9
-0.082, -1.723e-9
-0.084, -1.734e-9
-0.086, -1.747e-9
-0.088, -1.757e-9
-0.090, -1.767e-9
-0.092, -1.779e-9
-0.094, -1.791e-9
-0.096, -1.803e-9
-0.098, -1.814e-9
-0.100, -1.825e-9
-0.102, -1.839e-9
-0.104, -1.852e-9
-0.106, -1.861e-9
-0.108, -1.874e-9
-0.110, -1.884e-9
-0.112, -1.895e-9
-0.114, -1.905e-9
-0.116, -1.916e-9
-0.118, -1.927e-9
-0.120, -1.938e-9
-0.122, -1.948e-9
-0.124, -1.959e-9
-0.126, -1.969e-9
-0.128, -1.980e-9
-0.130, -1.990e-9
-0.132, -2.000e-9
-0.134, -2.012e-9
-0.136, -2.022e-9
-0.138, -2.033e-9
-0.140, -2.044e-9
-0.142, -2.054e-9
-0.144, -2.064e-9
-0.146, -2.076e-9
-0.148, -2.087e-9
-0.150, -2.098e-9
-0.152, -2.108e-9
-0.154, -2.119e-9
-0.156, -2.130e-9
-0.158, -2.140e-9
-0.160, -2.151e-9
-0.162, -2.161e-9
-0.164, -2.171e-9
-0.166, -2.182e-9
-0.168, -2.193e-9
-0.170, -2.203e-9
-0.172, -2.214e-9
-0.174, -2.224e-9
-0.176, -2.235e-9
-0.178, -2.245e-9
-0.180, -2.255e-9
-0.182, -2.265e-9
-0.184, -2.276e-9
-0.186, -2.287e-9
-0.188, -2.297e-9
-0.190, -2.307e-9
-0.192, -2.317e-9
-0.194, -2.327e-9
-0.196, -2.338e-9
-0.198, -2.348e-9
-0.200, -2.358e-9
-0.202, -2.369e-9
-0.204, -2.379e-9
-0.206, -2.387e-9
-0.208, -2.398e-9
-0.210, -2.409e-9
-0.212, -2.420e-9
-0.214, -2.429e-9
-0.216, -2.439e-9
-0.218, -2.448e-9
-0.220, -2.460e-9
-0.222, -2.470e-9
-0.224, -2.481e-9
-0.226, -2.490e-9
-0.228, -2.501e-9
-0.230, -2.511e-9
-0.232, -2.521e-9
-0.234, -2.531e-9
-0.236, -2.542e-9
-0.238, -2.552e-9
-0.240, -2.562e-9
-0.242, -2.573e-9
-0.244, -2.582e-9
-0.246, -2.593e-9
-0.248, -2.602e-9
-0.250, -2.612e-9
-0.252, -2.624e-9
-0.254, -2.633e-9
-0.256, -2.642e-9
-0.258, -2.652e-9
-0.260, -2.662e-9
-0.262, -2.673e-9
-0.264, -2.683e-9
-0.266, -2.691e-9
-0.268, -2.704e-9
-0.270, -2.715e-9
-0.272, -2.724e-9
-0.274, -2.733e-9
-0.276, -2.744e-9
-0.278, -2.755e-9
-0.280, -2.765e-9
-0.282, -2.776e-9
-0.284, -2.786e-9
-0.286, -2.797e-9
-0.288, -2.806e-9
-0.290, -2.818e-9
-0.292, -2.827e-9
-0.294, -2.837e-9
-0.296, -2.846e-9
-0.298, -2.856e-9
-0.300, -2.866e-9
-0.302, -2.876e-9
-0.304, -2.886e-9
-0.306, -2.897e-9
-0.308, -2.913e-9
-0.310, -2.920e-9
-0.312, -2.929e-9
-0.314, -2.939e-9
-0.316, -2.948e-9
-0.318, -2.959e-9
-0.320, -2.968e-9
-0.322, -2.978e-9
-0.324, -2.990e-9
-0.326, -3.000e-9
-0.328, -3.009e-9
-0.330, -3.020e-9
-0.332, -3.030e-9
-0.334, -3.041e-9
-0.336, -3.051e-9
-0.338, -3.062e-9
-0.340, -3.073e-9
-0.342, -3.084e-9
-0.344, -3.093e-9
-0.346, -3.103e-9
-0.348, -3.113e-9
-0.350, -3.124e-9
-0.352, -3.133e-9
-0.354, -3.144e-9
-0.356, -3.155e-9
-0.358, -3.166e-9
-0.360, -3.177e-9
-0.362, -3.187e-9
-0.364, -3.198e-9
-0.366, -3.211e-9
-0.368, -3.220e-9
-0.370, -3.231e-9
-0.372, -3.240e-9
-0.374, -3.252e-9
-0.376, -3.263e-9
-0.378, -3.275e-9
-0.380, -3.286e-9
-0.382, -3.296e-9
-0.384, -3.307e-9
-0.386, -3.318e-9
-0.388, -3.329e-9
-0.390, -3.340e-9
-0.392, -3.352e-9
-0.394, -3.362e-9
-0.396, -3.375e-9
-0.398, -3.385e-9
-0.400, -3.397e-9
-0.402, -3.405e-9
-0.404, -3.419e-9
-0.406, -3.430e-9
-0.408, -3.442e-9
-0.410, -3.452e-9
-0.412, -3.464e-9
-0.414, -3.475e-9
-0.416, -3.487e-9
-0.418, -3.500e-9
-0.420, -3.509e-9
-0.422, -3.523e-9
-0.424, -3.533e-9
-0.426, -3.544e-9
-0.428, -3.556e-9
-0.430, -3.569e-9
-0.432, -3.580e-9
-0.434, -3.591e-9
-0.436, -3.603e-9
-0.438, -3.615e-9
-0.440, -3.627e-9
-0.442, -3.640e-9
-0.444, -3.653e-9
-0.446, -3.664e-9
-0.448, -3.677e-9
-0.450, -3.690e-9
-0.452, -3.702e-9
-0.454, -3.715e-9
-0.456, -3.727e-9
-0.458, -3.739e-9
-0.460, -3.754e-9
-0.462, -3.765e-9
-0.464, -3.777e-9
-0.466, -3.791e-9
-0.468, -3.805e-9
-0.470, -3.818e-9
-0.472, -3.831e-9
-0.474, -3.843e-9
-0.476, -3.857e-9
-0.478, -3.871e-9
-0.480, -3.884e-9
-0.482, -3.895e-9
-0.484, -3.907e-9
-0.486, -3.923e-9
-0.488, -3.935e-9
-0.490, -3.949e-9
-0.492, -3.963e-9
-0.494, -3.975e-9
-0.496, -3.989e-9
-0.498, -4.006e-9
-0.499, -4.019e-9