File: Supplementary Fig 4/Fig S4e Surface CV +DCMU/CV SURFACE INCUBATED 7.txt
Mar. 7, 2025   14:39:29
Cyclic Voltammetry
File: cv surface incubated 7.bin
Instrument Model:  CHI920C
Ref. Electrode:
Header:
Note:

Init E (V) = -0.5
High E (V) = 0.5
Low E (V) = -0.5
Init P/N = P
Scan Rate (V/s) = 0.05
Segment = 2
Sample Interval (V) = 0.001
Quiet Time (sec) = 10
Sensitivity (A/V) = 1e-8

Results:

Channel 1:
Segment 1:

Segment 2:

Potential/V, Current/A

-0.500, -2.003e-9
-0.498, -1.860e-9
-0.496, -1.805e-9
-0.494, -1.763e-9
-0.492, -1.723e-9
-0.490, -1.688e-9
-0.488, -1.655e-9
-0.486, -1.627e-9
-0.484, -1.597e-9
-0.482, -1.572e-9
-0.480, -1.542e-9
-0.478, -1.517e-9
-0.476, -1.490e-9
-0.474, -1.465e-9
-0.472, -1.440e-9
-0.470, -1.418e-9
-0.468, -1.396e-9
-0.466, -1.372e-9
-0.464, -1.349e-9
-0.462, -1.328e-9
-0.460, -1.307e-9
-0.458, -1.285e-9
-0.456, -1.264e-9
-0.454, -1.241e-9
-0.452, -1.223e-9
-0.450, -1.201e-9
-0.448, -1.182e-9
-0.446, -1.163e-9
-0.444, -1.144e-9
-0.442, -1.125e-9
-0.440, -1.103e-9
-0.438, -1.083e-9
-0.436, -1.066e-9
-0.434, -1.048e-9
-0.432, -1.030e-9
-0.430, -1.010e-9
-0.428, -9.904e-10
-0.426, -9.727e-10
-0.424, -9.556e-10
-0.422, -9.406e-10
-0.420, -9.215e-10
-0.418, -9.032e-10
-0.416, -8.852e-10
-0.414, -8.680e-10
-0.412, -8.510e-10
-0.410, -8.332e-10
-0.408, -8.168e-10
-0.406, -7.995e-10
-0.404, -7.832e-10
-0.402, -7.673e-10
-0.400, -7.507e-10
-0.398, -7.343e-10
-0.396, -7.180e-10
-0.394, -7.008e-10
-0.392, -6.857e-10
-0.390, -6.700e-10
-0.388, -6.531e-10
-0.386, -6.387e-10
-0.384, -6.214e-10
-0.382, -6.073e-10
-0.380, -5.921e-10
-0.378, -5.772e-10
-0.376, -5.618e-10
-0.374, -5.463e-10
-0.372, -5.307e-10
-0.370, -5.155e-10
-0.368, -5.014e-10
-0.366, -4.857e-10
-0.364, -4.700e-10
-0.362, -4.560e-10
-0.360, -4.422e-10
-0.358, -4.283e-10
-0.356, -4.135e-10
-0.354, -3.994e-10
-0.352, -3.845e-10
-0.350, -3.703e-10
-0.348, -3.573e-10
-0.346, -3.429e-10
-0.344, -3.292e-10
-0.342, -3.163e-10
-0.340, -3.025e-10
-0.338, -2.890e-10
-0.336, -2.739e-10
-0.334, -2.616e-10
-0.332, -2.483e-10
-0.330, -2.340e-10
-0.328, -2.215e-10
-0.326, -2.072e-10
-0.324, -1.941e-10
-0.322, -1.809e-10
-0.320, -1.688e-10
-0.318, -1.549e-10
-0.316, -1.432e-10
-0.314, -1.271e-10
-0.312, -1.166e-10
-0.310, -1.039e-10
-0.308, -9.106e-11
-0.306, -7.369e-11
-0.304, -6.451e-11
-0.302, -5.282e-11
-0.300, -4.144e-11
-0.298, -2.685e-11
-0.296, -1.404e-11
-0.294, -5.085e-12
-0.292, 9.128e-12
-0.290, 2.067e-11
-0.288, 3.390e-11
-0.286, 4.519e-11
-0.284, 5.713e-11
-0.282, 6.789e-11
-0.280, 8.048e-11
-0.278, 9.175e-11
-0.276, 1.042e-10
-0.274, 1.167e-10
-0.272, 1.266e-10
-0.270, 1.396e-10
-0.268, 1.503e-10
-0.266, 1.634e-10
-0.264, 1.734e-10
-0.262, 1.858e-10
-0.260, 1.976e-10
-0.258, 2.075e-10
-0.256, 2.196e-10
-0.254, 2.313e-10
-0.252, 2.417e-10
-0.250, 2.536e-10
-0.248, 2.655e-10
-0.246, 2.749e-10
-0.244, 2.871e-10
-0.242, 2.987e-10
-0.240, 3.094e-10
-0.238, 3.199e-10
-0.236, 3.312e-10
-0.234, 3.415e-10
-0.232, 3.508e-10
-0.230, 3.621e-10
-0.228, 3.717e-10
-0.226, 3.833e-10
-0.224, 3.950e-10
-0.222, 4.053e-10
-0.220, 4.152e-10
-0.218, 4.254e-10
-0.216, 4.367e-10
-0.214, 4.463e-10
-0.212, 4.574e-10
-0.210, 4.678e-10
-0.208, 4.784e-10
-0.206, 4.886e-10
-0.204, 4.967e-10
-0.202, 5.092e-10
-0.200, 5.189e-10
-0.198, 5.293e-10
-0.196, 5.392e-10
-0.194, 5.506e-10
-0.192, 5.607e-10
-0.190, 5.708e-10
-0.188, 5.811e-10
-0.186, 5.908e-10
-0.184, 6.017e-10
-0.182, 6.125e-10
-0.180, 6.224e-10
-0.178, 6.325e-10
-0.176, 6.417e-10
-0.174, 6.518e-10
-0.172, 6.621e-10
-0.170, 6.721e-10
-0.168, 6.814e-10
-0.166, 6.906e-10
-0.164, 7.017e-10
-0.162, 7.105e-10
-0.160, 7.205e-10
-0.158, 7.306e-10
-0.156, 7.400e-10
-0.154, 7.504e-10
-0.152, 7.597e-10
-0.150, 7.688e-10
-0.148, 7.798e-10
-0.146, 7.897e-10
-0.144, 7.990e-10
-0.142, 8.096e-10
-0.140, 8.189e-10
-0.138, 8.287e-10
-0.136, 8.377e-10
-0.134, 8.490e-10
-0.132, 8.583e-10
-0.130, 8.682e-10
-0.128, 8.773e-10
-0.126, 8.876e-10
-0.124, 8.971e-10
-0.122, 9.078e-10
-0.120, 9.167e-10
-0.118, 9.264e-10
-0.116, 9.371e-10
-0.114, 9.467e-10
-0.112, 9.551e-10
-0.110, 9.654e-10
-0.108, 9.760e-10
-0.106, 9.859e-10
-0.104, 9.952e-10
-0.102, 1.010e-9
-0.100, 1.017e-9
-0.098, 1.026e-9
-0.096, 1.036e-9
-0.094, 1.045e-9
-0.092, 1.054e-9
-0.090, 1.064e-9
-0.088, 1.074e-9
-0.086, 1.083e-9
-0.084, 1.094e-9
-0.082, 1.104e-9
-0.080, 1.114e-9
-0.078, 1.124e-9
-0.076, 1.133e-9
-0.074, 1.143e-9
-0.072, 1.153e-9
-0.070, 1.164e-9
-0.068, 1.173e-9
-0.066, 1.183e-9
-0.064, 1.192e-9
-0.062, 1.202e-9
-0.060, 1.212e-9
-0.058, 1.223e-9
-0.056, 1.233e-9
-0.054, 1.242e-9
-0.052, 1.253e-9
-0.050, 1.261e-9
-0.048, 1.273e-9
-0.046, 1.282e-9
-0.044, 1.293e-9
-0.042, 1.303e-9
-0.040, 1.313e-9
-0.038, 1.321e-9
-0.036, 1.332e-9
-0.034, 1.342e-9
-0.032, 1.352e-9
-0.030, 1.362e-9
-0.028, 1.371e-9
-0.026, 1.383e-9
-0.024, 1.391e-9
-0.022, 1.403e-9
-0.020, 1.412e-9
-0.018, 1.423e-9
-0.016, 1.432e-9
-0.014, 1.443e-9
-0.012, 1.452e-9
-0.010, 1.463e-9
-0.008, 1.472e-9
-0.006, 1.483e-9
-0.004, 1.494e-9
-0.002, 1.503e-9
0.000, 1.509e-9
0.002, 1.521e-9
0.004, 1.533e-9
0.006, 1.542e-9
0.008, 1.554e-9
0.010, 1.562e-9
0.012, 1.573e-9
0.014, 1.583e-9
0.016, 1.594e-9
0.018, 1.603e-9
0.020, 1.614e-9
0.022, 1.624e-9
0.024, 1.635e-9
0.026, 1.645e-9
0.028, 1.654e-9
0.030, 1.665e-9
0.032, 1.675e-9
0.034, 1.685e-9
0.036, 1.695e-9
0.038, 1.705e-9
0.040, 1.715e-9
0.042, 1.726e-9
0.044, 1.737e-9
0.046, 1.747e-9
0.048, 1.756e-9
0.050, 1.767e-9
0.052, 1.776e-9
0.054, 1.788e-9
0.056, 1.798e-9
0.058, 1.808e-9
0.060, 1.819e-9
0.062, 1.829e-9
0.064, 1.840e-9
0.066, 1.850e-9
0.068, 1.860e-9
0.070, 1.872e-9
0.072, 1.882e-9
0.074, 1.893e-9
0.076, 1.904e-9
0.078, 1.915e-9
0.080, 1.926e-9
0.082, 1.937e-9
0.084, 1.947e-9
0.086, 1.958e-9
0.088, 1.970e-9
0.090, 1.980e-9
0.092, 1.992e-9
0.094, 2.004e-9
0.096, 2.017e-9
0.098, 2.032e-9
0.100, 2.047e-9
0.102, 2.063e-9
0.104, 2.078e-9
0.106, 2.093e-9
0.108, 2.109e-9
0.110, 2.124e-9
0.112, 2.128e-9
0.114, 2.136e-9
0.116, 2.144e-9
0.118, 2.152e-9
0.120, 2.161e-9
0.122, 2.169e-9
0.124, 2.180e-9
0.126, 2.192e-9
0.128, 2.203e-9
0.130, 2.216e-9
0.132, 2.230e-9
0.134, 2.243e-9
0.136, 2.256e-9
0.138, 2.269e-9
0.140, 2.284e-9
0.142, 2.296e-9
0.144, 2.311e-9
0.146, 2.323e-9
0.148, 2.338e-9
0.150, 2.352e-9
0.152, 2.366e-9
0.154, 2.379e-9
0.156, 2.395e-9
0.158, 2.407e-9
0.160, 2.423e-9
0.162, 2.437e-9
0.164, 2.451e-9
0.166, 2.466e-9
0.168, 2.479e-9
0.170, 2.494e-9
0.172, 2.509e-9
0.174, 2.524e-9
0.176, 2.538e-9
0.178, 2.552e-9
0.180, 2.566e-9
0.182, 2.580e-9
0.184, 2.595e-9
0.186, 2.609e-9
0.188, 2.624e-9
0.190, 2.637e-9
0.192, 2.652e-9
0.194, 2.665e-9
0.196, 2.680e-9
0.198, 2.695e-9
0.200, 2.708e-9
0.202, 2.722e-9
0.204, 2.737e-9
0.206, 2.748e-9
0.208, 2.762e-9
0.210, 2.776e-9
0.212, 2.790e-9
0.214, 2.805e-9
0.216, 2.818e-9
0.218, 2.831e-9
0.220, 2.845e-9
0.222, 2.859e-9
0.224, 2.872e-9
0.226, 2.885e-9
0.228, 2.899e-9
0.230, 2.912e-9
0.232, 2.925e-9
0.234, 2.938e-9
0.236, 2.951e-9
0.238, 2.964e-9
0.240, 2.977e-9
0.242, 2.989e-9
0.244, 3.003e-9
0.246, 3.013e-9
0.248, 3.027e-9
0.250, 3.039e-9
0.252, 3.053e-9
0.254, 3.064e-9
0.256, 3.078e-9
0.258, 3.089e-9
0.260, 3.101e-9
0.262, 3.114e-9
0.264, 3.125e-9
0.266, 3.138e-9
0.268, 3.150e-9
0.270, 3.162e-9
0.272, 3.173e-9
0.274, 3.185e-9
0.276, 3.196e-9
0.278, 3.210e-9
0.280, 3.220e-9
0.282, 3.230e-9
0.284, 3.242e-9
0.286, 3.252e-9
0.288, 3.265e-9
0.290, 3.275e-9
0.292, 3.286e-9
0.294, 3.297e-9
0.296, 3.309e-9
0.298, 3.318e-9
0.300, 3.331e-9
0.302, 3.341e-9
0.304, 3.352e-9
0.306, 3.363e-9
0.308, 3.380e-9
0.310, 3.389e-9
0.312, 3.397e-9
0.314, 3.407e-9
0.316, 3.417e-9
0.318, 3.428e-9
0.320, 3.437e-9
0.322, 3.449e-9
0.324, 3.458e-9
0.326, 3.471e-9
0.328, 3.480e-9
0.330, 3.490e-9
0.332, 3.501e-9
0.334, 3.511e-9
0.336, 3.521e-9
0.338, 3.531e-9
0.340, 3.542e-9
0.342, 3.552e-9
0.344, 3.562e-9
0.346, 3.572e-9
0.348, 3.583e-9
0.350, 3.595e-9
0.352, 3.604e-9
0.354, 3.615e-9
0.356, 3.625e-9
0.358, 3.636e-9
0.360, 3.644e-9
0.362, 3.656e-9
0.364, 3.666e-9
0.366, 3.677e-9
0.368, 3.686e-9
0.370, 3.696e-9
0.372, 3.707e-9
0.374, 3.718e-9
0.376, 3.727e-9
0.378, 3.738e-9
0.380, 3.750e-9
0.382, 3.761e-9
0.384, 3.773e-9
0.386, 3.781e-9
0.388, 3.791e-9
0.390, 3.802e-9
0.392, 3.813e-9
0.394, 3.824e-9
0.396, 3.836e-9
0.398, 3.846e-9
0.400, 3.856e-9
0.402, 3.868e-9
0.404, 3.880e-9
0.406, 3.893e-9
0.408, 3.903e-9
0.410, 3.908e-9
0.412, 3.925e-9
0.414, 3.938e-9
0.416, 3.949e-9
0.418, 3.963e-9
0.420, 3.973e-9
0.422, 3.984e-9
0.424, 3.995e-9
0.426, 4.006e-9
0.428, 4.017e-9
0.430, 4.031e-9
0.432, 4.041e-9
0.434, 4.052e-9
0.436, 4.063e-9
0.438, 4.074e-9
0.440, 4.087e-9
0.442, 4.100e-9
0.444, 4.111e-9
0.446, 4.125e-9
0.448, 4.136e-9
0.450, 4.147e-9
0.452, 4.157e-9
0.454, 4.170e-9
0.456, 4.184e-9
0.458, 4.195e-9
0.460, 4.207e-9
0.462, 4.218e-9
0.464, 4.228e-9
0.466, 4.243e-9
0.468, 4.256e-9
0.470, 4.268e-9
0.472, 4.282e-9
0.474, 4.292e-9
0.476, 4.307e-9
0.478, 4.319e-9
0.480, 4.332e-9
0.482, 4.347e-9
0.484, 4.359e-9
0.486, 4.373e-9
0.488, 4.387e-9
0.490, 4.402e-9
0.492, 4.418e-9
0.494, 4.432e-9
0.496, 4.447e-9
0.498, 4.464e-9
0.500, 4.434e-9
0.498, 4.124e-9
0.496, 3.981e-9
0.494, 3.869e-9
0.492, 3.774e-9
0.490, 3.686e-9
0.488, 3.607e-9
0.486, 3.533e-9
0.484, 3.462e-9
0.482, 3.396e-9
0.480, 3.331e-9
0.478, 3.271e-9
0.476, 3.213e-9
0.474, 3.157e-9
0.472, 3.103e-9
0.470, 3.052e-9
0.468, 3.001e-9
0.466, 2.951e-9
0.464, 2.905e-9
0.462, 2.859e-9
0.460, 2.814e-9
0.458, 2.770e-9
0.456, 2.727e-9
0.454, 2.686e-9
0.452, 2.644e-9
0.450, 2.604e-9
0.448, 2.566e-9
0.446, 2.527e-9
0.444, 2.487e-9
0.442, 2.450e-9
0.440, 2.413e-9
0.438, 2.377e-9
0.436, 2.341e-9
0.434, 2.307e-9
0.432, 2.272e-9
0.430, 2.239e-9
0.428, 2.203e-9
0.426, 2.169e-9
0.424, 2.136e-9
0.422, 2.105e-9
0.420, 2.073e-9
0.418, 2.042e-9
0.416, 2.009e-9
0.414, 1.978e-9
0.412, 1.947e-9
0.410, 1.919e-9
0.408, 1.891e-9
0.406, 1.860e-9
0.404, 1.829e-9
0.402, 1.798e-9
0.400, 1.770e-9
0.398, 1.743e-9
0.396, 1.713e-9
0.394, 1.684e-9
0.392, 1.657e-9
0.390, 1.629e-9
0.388, 1.601e-9
0.386, 1.573e-9
0.384, 1.547e-9
0.382, 1.519e-9
0.380, 1.493e-9
0.378, 1.465e-9
0.376, 1.438e-9
0.374, 1.413e-9
0.372, 1.386e-9
0.370, 1.361e-9
0.368, 1.336e-9
0.366, 1.310e-9
0.364, 1.285e-9
0.362, 1.260e-9
0.360, 1.234e-9
0.358, 1.210e-9
0.356, 1.186e-9
0.354, 1.162e-9
0.352, 1.138e-9
0.350, 1.112e-9
0.348, 1.090e-9
0.346, 1.065e-9
0.344, 1.042e-9
0.342, 1.017e-9
0.340, 9.956e-10
0.338, 9.709e-10
0.336, 9.485e-10
0.334, 9.244e-10
0.332, 9.026e-10
0.330, 8.799e-10
0.328, 8.570e-10
0.326, 8.355e-10
0.324, 8.124e-10
0.322, 7.914e-10
0.320, 7.688e-10
0.318, 7.476e-10
0.316, 7.255e-10
0.314, 7.039e-10
0.312, 6.839e-10
0.310, 6.630e-10
0.308, 6.414e-10
0.306, 6.172e-10
0.304, 5.985e-10
0.302, 5.777e-10
0.300, 5.586e-10
0.298, 5.385e-10
0.296, 5.184e-10
0.294, 5.003e-10
0.292, 4.804e-10
0.290, 4.626e-10
0.288, 4.436e-10
0.286, 4.241e-10
0.284, 4.056e-10
0.282, 3.886e-10
0.280, 3.698e-10
0.278, 3.518e-10
0.276, 3.334e-10
0.274, 3.163e-10
0.272, 2.987e-10
0.270, 2.829e-10
0.268, 2.650e-10
0.266, 2.498e-10
0.264, 2.336e-10
0.262, 2.158e-10
0.260, 2.013e-10
0.258, 1.842e-10
0.256, 1.694e-10
0.254, 1.536e-10
0.252, 1.394e-10
0.250, 1.235e-10
0.248, 1.087e-10
0.246, 9.488e-11
0.244, 7.936e-11
0.242, 6.549e-11
0.240, 5.207e-11
0.238, 3.828e-11
0.236, 2.432e-11
0.234, 1.207e-11
0.232, -9.124e-13
0.230, -1.416e-11
0.228, -2.793e-11
0.226, -3.952e-11
0.224, -5.104e-11
0.222, -6.344e-11
0.220, -7.376e-11
0.218, -8.619e-11
0.216, -9.709e-11
0.214, -1.084e-10
0.212, -1.186e-10
0.210, -1.304e-10
0.208, -1.396e-10
0.206, -1.527e-10
0.204, -1.579e-10
0.202, -1.709e-10
0.200, -1.810e-10
0.198, -1.901e-10
0.196, -1.982e-10
0.194, -2.116e-10
0.192, -2.228e-10
0.190, -2.332e-10
0.188, -2.429e-10
0.186, -2.437e-10
0.184, -2.523e-10
0.182, -2.692e-10
0.180, -2.799e-10
0.178, -2.883e-10
0.176, -2.979e-10
0.174, -3.055e-10
0.172, -3.149e-10
0.170, -3.236e-10
0.168, -3.337e-10
0.166, -3.409e-10
0.164, -3.509e-10
0.162, -3.588e-10
0.160, -3.683e-10
0.158, -3.767e-10
0.156, -3.854e-10
0.154, -3.938e-10
0.152, -4.022e-10
0.150, -4.106e-10
0.148, -4.194e-10
0.146, -4.287e-10
0.144, -4.379e-10
0.142, -4.494e-10
0.140, -4.576e-10
0.138, -4.639e-10
0.136, -4.713e-10
0.134, -4.804e-10
0.132, -4.903e-10
0.130, -4.983e-10
0.128, -5.068e-10
0.126, -5.163e-10
0.124, -5.239e-10
0.122, -5.338e-10
0.120, -5.430e-10
0.118, -5.527e-10
0.116, -5.620e-10
0.114, -5.711e-10
0.112, -5.797e-10
0.110, -5.895e-10
0.108, -5.990e-10
0.106, -6.086e-10
0.104, -6.162e-10
0.102, -6.315e-10
0.100, -6.384e-10
0.098, -6.472e-10
0.096, -6.567e-10
0.094, -6.670e-10
0.092, -6.760e-10
0.090, -6.871e-10
0.088, -6.960e-10
0.086, -7.054e-10
0.084, -7.166e-10
0.082, -7.271e-10
0.080, -7.370e-10
0.078, -7.467e-10
0.076, -7.580e-10
0.074, -7.686e-10
0.072, -7.798e-10
0.070, -7.904e-10
0.068, -8.002e-10
0.066, -8.118e-10
0.064, -8.218e-10
0.062, -8.336e-10
0.060, -8.433e-10
0.058, -8.557e-10
0.056, -8.669e-10
0.054, -8.785e-10
0.052, -8.899e-10
0.050, -9.011e-10
0.048, -9.121e-10
0.046, -9.248e-10
0.044, -9.378e-10
0.042, -9.495e-10
0.040, -9.621e-10
0.038, -9.725e-10
0.036, -9.868e-10
0.034, -9.980e-10
0.032, -1.010e-9
0.030, -1.023e-9
0.028, -1.035e-9
0.026, -1.047e-9
0.024, -1.060e-9
0.022, -1.071e-9
0.020, -1.084e-9
0.018, -1.098e-9
0.016, -1.109e-9
0.014, -1.124e-9
0.012, -1.135e-9
0.010, -1.148e-9
0.008, -1.160e-9
0.006, -1.174e-9
0.004, -1.186e-9
0.002, -1.200e-9
-0.000, -1.207e-9
-0.002, -1.224e-9
-0.004, -1.236e-9
-0.006, -1.250e-9
-0.008, -1.264e-9
-0.010, -1.277e-9
-0.012, -1.294e-9
-0.014, -1.306e-9
-0.016, -1.321e-9
-0.018, -1.332e-9
-0.020, -1.347e-9
-0.022, -1.361e-9
-0.024, -1.375e-9
-0.026, -1.391e-9
-0.028, -1.404e-9
-0.030, -1.417e-9
-0.032, -1.433e-9
-0.034, -1.449e-9
-0.036, -1.473e-9
-0.038, -1.487e-9
-0.040, -1.505e-9
-0.042, -1.523e-9
-0.044, -1.542e-9
-0.046, -1.550e-9
-0.048, -1.559e-9
-0.050, -1.570e-9
-0.052, -1.569e-9
-0.054, -1.579e-9
-0.056, -1.594e-9
-0.058, -1.599e-9
-0.060, -1.606e-9
-0.062, -1.616e-9
-0.064, -1.629e-9
-0.066, -1.641e-9
-0.068, -1.657e-9
-0.070, -1.668e-9
-0.072, -1.681e-9
-0.074, -1.699e-9
-0.076, -1.717e-9
-0.078, -1.718e-9
-0.080, -1.730e-9
-0.082, -1.743e-9
-0.084, -1.754e-9
-0.086, -1.765e-9
-0.088, -1.781e-9
-0.090, -1.795e-9
-0.092, -1.808e-9
-0.094, -1.817e-9
-0.096, -1.829e-9
-0.098, -1.845e-9
-0.100, -1.859e-9
-0.102, -1.875e-9
-0.104, -1.886e-9
-0.106, -1.895e-9
-0.108, -1.909e-9
-0.110, -1.921e-9
-0.112, -1.932e-9
-0.114, -1.944e-9
-0.116, -1.956e-9
-0.118, -1.966e-9
-0.120, -1.975e-9
-0.122, -1.988e-9
-0.124, -2.000e-9
-0.126, -2.014e-9
-0.128, -2.024e-9
-0.130, -2.047e-9
-0.132, -2.062e-9
-0.134, -2.058e-9
-0.136, -2.071e-9
-0.138, -2.080e-9
-0.140, -2.092e-9
-0.142, -2.101e-9
-0.144, -2.114e-9
-0.146, -2.125e-9
-0.148, -2.138e-9
-0.150, -2.147e-9
-0.152, -2.158e-9
-0.154, -2.169e-9
-0.156, -2.182e-9
-0.158, -2.193e-9
-0.160, -2.205e-9
-0.162, -2.215e-9
-0.164, -2.226e-9
-0.166, -2.237e-9
-0.168, -2.248e-9
-0.170, -2.258e-9
-0.172, -2.268e-9
-0.174, -2.280e-9
-0.176, -2.290e-9
-0.178, -2.300e-9
-0.180, -2.312e-9
-0.182, -2.322e-9
-0.184, -2.334e-9
-0.186, -2.343e-9
-0.188, -2.354e-9
-0.190, -2.365e-9
-0.192, -2.376e-9
-0.194, -2.386e-9
-0.196, -2.396e-9
-0.198, -2.406e-9
-0.200, -2.418e-9
-0.202, -2.428e-9
-0.204, -2.439e-9
-0.206, -2.447e-9
-0.208, -2.459e-9
-0.210, -2.471e-9
-0.212, -2.480e-9
-0.214, -2.492e-9
-0.216, -2.503e-9
-0.218, -2.513e-9
-0.220, -2.524e-9
-0.222, -2.535e-9
-0.224, -2.545e-9
-0.226, -2.555e-9
-0.228, -2.566e-9
-0.230, -2.575e-9
-0.232, -2.585e-9
-0.234, -2.595e-9
-0.236, -2.607e-9
-0.238, -2.618e-9
-0.240, -2.629e-9
-0.242, -2.638e-9
-0.244, -2.648e-9
-0.246, -2.659e-9
-0.248, -2.667e-9
-0.250, -2.680e-9
-0.252, -2.690e-9
-0.254, -2.699e-9
-0.256, -2.711e-9
-0.258, -2.719e-9
-0.260, -2.731e-9
-0.262, -2.742e-9
-0.264, -2.753e-9
-0.266, -2.762e-9
-0.268, -2.771e-9
-0.270, -2.784e-9
-0.272, -2.790e-9
-0.274, -2.803e-9
-0.276, -2.811e-9
-0.278, -2.823e-9
-0.280, -2.830e-9
-0.282, -2.840e-9
-0.284, -2.852e-9
-0.286, -2.861e-9
-0.288, -2.872e-9
-0.290, -2.882e-9
-0.292, -2.892e-9
-0.294, -2.901e-9
-0.296, -2.912e-9
-0.298, -2.921e-9
-0.300, -2.932e-9
-0.302, -2.942e-9
-0.304, -2.953e-9
-0.306, -2.963e-9
-0.308, -2.978e-9
-0.310, -2.984e-9
-0.312, -2.993e-9
-0.314, -3.005e-9
-0.316, -3.015e-9
-0.318, -3.024e-9
-0.320, -3.033e-9
-0.322, -3.045e-9
-0.324, -3.052e-9
-0.326, -3.067e-9
-0.328, -3.076e-9
-0.330, -3.086e-9
-0.332, -3.098e-9
-0.334, -3.108e-9
-0.336, -3.117e-9
-0.338, -3.129e-9
-0.340, -3.139e-9
-0.342, -3.150e-9
-0.344, -3.160e-9
-0.346, -3.169e-9
-0.348, -3.180e-9
-0.350, -3.190e-9
-0.352, -3.202e-9
-0.354, -3.211e-9
-0.356, -3.223e-9
-0.358, -3.232e-9
-0.360, -3.244e-9
-0.362, -3.253e-9
-0.364, -3.266e-9
-0.366, -3.276e-9
-0.368, -3.285e-9
-0.370, -3.296e-9
-0.372, -3.307e-9
-0.374, -3.318e-9
-0.376, -3.329e-9
-0.378, -3.340e-9
-0.380, -3.350e-9
-0.382, -3.362e-9
-0.384, -3.371e-9
-0.386, -3.382e-9
-0.388, -3.391e-9
-0.390, -3.406e-9
-0.392, -3.416e-9
-0.394, -3.428e-9
-0.396, -3.439e-9
-0.398, -3.451e-9
-0.400, -3.457e-9
-0.402, -3.472e-9
-0.404, -3.485e-9
-0.406, -3.494e-9
-0.408, -3.505e-9
-0.410, -3.518e-9
-0.412, -3.531e-9
-0.414, -3.540e-9
-0.416, -3.553e-9
-0.418, -3.563e-9
-0.420, -3.575e-9
-0.422, -3.586e-9
-0.424, -3.599e-9
-0.426, -3.610e-9
-0.428, -3.622e-9
-0.430, -3.633e-9
-0.432, -3.646e-9
-0.434, -3.657e-9
-0.436, -3.668e-9
-0.438, -3.680e-9
-0.440, -3.692e-9
-0.442, -3.704e-9
-0.444, -3.718e-9
-0.446, -3.728e-9
-0.448, -3.740e-9
-0.450, -3.752e-9
-0.452, -3.766e-9
-0.454, -3.778e-9
-0.456, -3.789e-9
-0.458, -3.801e-9
-0.460, -3.814e-9
-0.462, -3.826e-9
-0.464, -3.838e-9
-0.466, -3.852e-9
-0.468, -3.864e-9
-0.470, -3.877e-9
-0.472, -3.890e-9
-0.474, -3.903e-9
-0.476, -3.917e-9
-0.478, -3.932e-9
-0.480, -3.944e-9
-0.482, -3.960e-9
-0.484, -3.971e-9
-0.486, -3.987e-9
-0.488, -4.000e-9
-0.490, -4.014e-9
-0.492, -4.029e-9
-0.494, -4.044e-9
-0.496, -4.056e-9
-0.498, -4.070e-9
-0.499, -4.078e-9