File: Supplementary Fig 4/Fig S4d Bulk CVs post incubation/CV_dark_incubation_C.txt
Nov. 20, 2024   13:25:53
Cyclic Voltammetry
File: +12 2319-1 fto cv_cells_light_bulk 50 mv s-1 (2).bin
Data Source:  Experiment
Instrument Model:  CHI920C
Ref. Electrode:
Header:
Note:

Init E (V) = -0.5
High E (V) = 0.5
Low E (V) = -0.5
Init P/N = P
Scan Rate (V/s) = 0.05
Segment = 2
Sample Interval (V) = 0.001
Quiet Time (sec) = 10
Sensitivity (A/V) = 1e-7

Results:

Channel 1:
Segment 1:
Ep = 0.090V
ip = 7.959e-9A
Ah = 1.491e-9C

Segment 2:
Ep = -0.062V
ip = -5.085e-9A
Ah = -9.741e-10C

Potential/V, Current/A

-0.500, -3.623e-10
-0.498, -3.531e-10
-0.496, -3.309e-10
-0.494, -2.960e-10
-0.492, -2.752e-10
-0.490, -2.634e-10
-0.488, -2.601e-10
-0.486, -2.478e-10
-0.484, -2.445e-10
-0.482, -2.357e-10
-0.480, -2.350e-10
-0.478, -2.217e-10
-0.476, -2.140e-10
-0.474, -2.018e-10
-0.472, -2.029e-10
-0.470, -2.044e-10
-0.468, -1.954e-10
-0.466, -1.855e-10
-0.464, -1.813e-10
-0.462, -1.732e-10
-0.460, -1.717e-10
-0.458, -1.760e-10
-0.456, -1.732e-10
-0.454, -1.722e-10
-0.452, -1.689e-10
-0.450, -1.526e-10
-0.448, -1.496e-10
-0.446, -1.518e-10
-0.444, -1.523e-10
-0.442, -1.512e-10
-0.440, -1.426e-10
-0.438, -1.426e-10
-0.436, -1.387e-10
-0.434, -1.289e-10
-0.432, -1.265e-10
-0.430, -1.246e-10
-0.428, -1.184e-10
-0.426, -1.177e-10
-0.424, -1.096e-10
-0.422, -1.099e-10
-0.420, -1.049e-10
-0.418, -9.968e-11
-0.416, -9.725e-11
-0.414, -9.471e-11
-0.412, -9.023e-11
-0.410, -8.389e-11
-0.408, -8.253e-11
-0.406, -8.331e-11
-0.404, -7.980e-11
-0.402, -7.395e-11
-0.400, -6.986e-11
-0.398, -6.683e-11
-0.396, -6.235e-11
-0.394, -5.933e-11
-0.392, -5.952e-11
-0.390, -5.757e-11
-0.388, -6.362e-11
-0.386, -5.026e-11
-0.384, -4.685e-11
-0.382, -4.568e-11
-0.380, -3.993e-11
-0.378, -3.710e-11
-0.376, -2.930e-11
-0.374, -2.599e-11
-0.372, -2.521e-11
-0.370, -2.579e-11
-0.368, -2.121e-11
-0.366, -2.170e-11
-0.364, -2.024e-11
-0.362, -1.488e-11
-0.360, -1.439e-11
-0.358, -1.029e-11
-0.356, -6.492e-12
-0.354, -6.492e-12
-0.352, -2.496e-12
-0.350, 1.696e-12
-0.348, 5.790e-12
-0.346, 8.617e-12
-0.344, 1.135e-11
-0.342, 1.700e-11
-0.340, 1.934e-11
-0.338, 1.564e-11
-0.336, 1.759e-11
-0.334, 2.178e-11
-0.332, 2.392e-11
-0.330, 2.616e-11
-0.328, 2.509e-11
-0.326, 3.162e-11
-0.324, 3.133e-11
-0.322, 3.620e-11
-0.320, 3.962e-11
-0.318, 4.469e-11
-0.316, 4.566e-11
-0.314, 4.508e-11
-0.312, 5.092e-11
-0.310, 5.073e-11
-0.308, 5.297e-11
-0.306, 5.716e-11
-0.304, 5.785e-11
-0.302, 6.087e-11
-0.300, 6.330e-11
-0.298, 6.613e-11
-0.296, 7.042e-11
-0.294, 7.208e-11
-0.292, 7.500e-11
-0.290, 7.637e-11
-0.288, 7.958e-11
-0.286, 8.241e-11
-0.284, 8.358e-11
-0.282, 8.495e-11
-0.280, 8.914e-11
-0.278, 9.343e-11
-0.276, 9.703e-11
-0.274, 1.008e-10
-0.272, 1.021e-10
-0.270, 1.041e-10
-0.268, 1.087e-10
-0.266, 1.120e-10
-0.264, 1.148e-10
-0.262, 1.179e-10
-0.260, 1.200e-10
-0.258, 1.234e-10
-0.256, 1.267e-10
-0.254, 1.282e-10
-0.252, 1.314e-10
-0.250, 1.336e-10
-0.248, 1.361e-10
-0.246, 1.383e-10
-0.244, 1.415e-10
-0.242, 1.453e-10
-0.240, 1.501e-10
-0.238, 1.515e-10
-0.236, 1.556e-10
-0.234, 1.584e-10
-0.232, 1.606e-10
-0.230, 1.628e-10
-0.228, 1.674e-10
-0.226, 1.710e-10
-0.224, 1.754e-10
-0.222, 1.776e-10
-0.220, 1.801e-10
-0.218, 1.822e-10
-0.216, 1.840e-10
-0.214, 1.885e-10
-0.212, 1.916e-10
-0.210, 1.987e-10
-0.208, 2.006e-10
-0.206, 2.070e-10
-0.204, 2.097e-10
-0.202, 2.144e-10
-0.200, 2.191e-10
-0.198, 2.241e-10
-0.196, 2.317e-10
-0.194, 2.326e-10
-0.192, 2.356e-10
-0.190, 2.403e-10
-0.188, 2.441e-10
-0.186, 2.477e-10
-0.184, 2.503e-10
-0.182, 2.559e-10
-0.180, 2.569e-10
-0.178, 2.612e-10
-0.176, 2.670e-10
-0.174, 2.705e-10
-0.172, 2.738e-10
-0.170, 2.749e-10
-0.168, 2.807e-10
-0.166, 2.841e-10
-0.164, 2.933e-10
-0.162, 2.960e-10
-0.160, 3.022e-10
-0.158, 3.054e-10
-0.156, 3.127e-10
-0.154, 3.173e-10
-0.152, 3.213e-10
-0.150, 3.247e-10
-0.148, 3.276e-10
-0.146, 3.311e-10
-0.144, 3.377e-10
-0.142, 3.480e-10
-0.140, 3.525e-10
-0.138, 3.595e-10
-0.136, 3.623e-10
-0.134, 3.688e-10
-0.132, 3.716e-10
-0.130, 3.698e-10
-0.128, 3.712e-10
-0.126, 3.831e-10
-0.124, 3.884e-10
-0.122, 3.900e-10
-0.120, 3.908e-10
-0.118, 3.909e-10
-0.116, 4.025e-10
-0.114, 4.072e-10
-0.112, 4.130e-10
-0.110, 4.203e-10
-0.108, 4.212e-10
-0.106, 4.248e-10
-0.104, 4.365e-10
-0.102, 4.335e-10
-0.100, 4.405e-10
-0.098, 4.483e-10
-0.096, 4.564e-10
-0.094, 4.662e-10
-0.092, 4.681e-10
-0.090, 4.797e-10
-0.088, 4.916e-10
-0.086, 4.907e-10
-0.084, 4.994e-10
-0.082, 5.047e-10
-0.080, 5.012e-10
-0.078, 5.081e-10
-0.076, 5.163e-10
-0.074, 5.158e-10
-0.072, 5.274e-10
-0.070, 5.350e-10
-0.068, 5.415e-10
-0.066, 5.425e-10
-0.064, 5.567e-10
-0.062, 5.664e-10
-0.060, 5.600e-10
-0.058, 5.592e-10
-0.056, 5.673e-10
-0.054, 5.810e-10
-0.052, 5.811e-10
-0.050, 6.068e-10
-0.048, 8.367e-10
-0.046, 9.268e-10
-0.044, 8.695e-10
-0.042, 8.508e-10
-0.040, 8.399e-10
-0.038, 8.423e-10
-0.036, 8.412e-10
-0.034, 8.356e-10
-0.032, 8.383e-10
-0.030, 8.385e-10
-0.028, 8.398e-10
-0.026, 8.441e-10
-0.024, 8.512e-10
-0.022, 8.589e-10
-0.020, 8.628e-10
-0.018, 8.631e-10
-0.016, 8.744e-10
-0.014, 8.772e-10
-0.012, 8.812e-10
-0.010, 8.833e-10
-0.008, 8.884e-10
-0.006, 8.994e-10
-0.004, 9.024e-10
-0.002, 9.121e-10
0.000, 9.112e-10
0.002, 9.214e-10
0.004, 9.314e-10
0.006, 9.386e-10
0.008, 9.441e-10
0.010, 9.528e-10
0.012, 9.565e-10
0.014, 9.664e-10
0.016, 9.748e-10
0.018, 9.805e-10
0.020, 9.882e-10
0.022, 9.944e-10
0.024, 1.002e-9
0.026, 1.014e-9
0.028, 1.020e-9
0.030, 1.027e-9
0.032, 1.029e-9
0.034, 1.040e-9
0.036, 1.056e-9
0.038, 1.064e-9
0.040, 1.074e-9
0.042, 1.080e-9
0.044, 1.088e-9
0.046, 1.102e-9
0.048, 1.118e-9
0.050, 1.126e-9
0.052, 1.141e-9
0.054, 1.157e-9
0.056, 1.180e-9
0.058, 1.194e-9
0.060, 1.217e-9
0.062, 1.228e-9
0.064, 1.240e-9
0.066, 1.260e-9
0.068, 1.284e-9
0.070, 1.310e-9
0.072, 1.347e-9
0.074, 1.424e-9
0.076, 1.517e-9
0.078, 1.727e-9
0.080, 2.138e-9
0.082, 2.942e-9
0.084, 4.408e-9
0.086, 6.646e-9
0.088, 8.499e-9
0.090, 8.816e-9
0.092, 8.033e-9
0.094, 5.377e-9
0.096, 3.868e-9
0.098, 2.899e-9
0.100, 2.529e-9
0.102, 2.268e-9
0.104, 1.947e-9
0.106, 1.690e-9
0.108, 1.537e-9
0.110, 1.439e-9
0.112, 1.392e-9
0.114, 1.372e-9
0.116, 1.365e-9
0.118, 1.375e-9
0.120, 1.371e-9
0.122, 1.365e-9
0.124, 1.369e-9
0.126, 1.370e-9
0.128, 1.370e-9
0.130, 1.385e-9
0.132, 1.386e-9
0.134, 1.389e-9
0.136, 1.401e-9
0.138, 1.401e-9
0.140, 1.402e-9
0.142, 1.412e-9
0.144, 1.411e-9
0.146, 1.423e-9
0.148, 1.430e-9
0.150, 1.428e-9
0.152, 1.439e-9
0.154, 1.458e-9
0.156, 1.452e-9
0.158, 1.468e-9
0.160, 1.474e-9
0.162, 1.476e-9
0.164, 1.478e-9
0.166, 1.479e-9
0.168, 1.486e-9
0.170, 1.491e-9
0.172, 1.496e-9
0.174, 1.533e-9
0.176, 1.549e-9
0.178, 1.562e-9
0.180, 1.592e-9
0.182, 1.604e-9
0.184, 1.655e-9
0.186, 1.704e-9
0.188, 1.717e-9
0.190, 1.729e-9
0.192, 1.738e-9
0.194, 1.738e-9
0.196, 1.745e-9
0.198, 1.745e-9
0.200, 1.773e-9
0.202, 1.774e-9
0.204, 1.772e-9
0.206, 1.779e-9
0.208, 1.788e-9
0.210, 1.808e-9
0.212, 1.819e-9
0.214, 1.820e-9
0.216, 1.824e-9
0.218, 1.847e-9
0.220, 1.852e-9
0.222, 1.848e-9
0.224, 1.866e-9
0.226, 1.866e-9
0.228, 1.859e-9
0.230, 1.860e-9
0.232, 1.862e-9
0.234, 1.854e-9
0.236, 1.847e-9
0.238, 1.849e-9
0.240, 1.846e-9
0.242, 1.845e-9
0.244, 1.843e-9
0.246, 1.845e-9
0.248, 1.855e-9
0.250, 1.855e-9
0.252, 1.854e-9
0.254, 1.862e-9
0.256, 1.865e-9
0.258, 1.867e-9
0.260, 1.883e-9
0.262, 1.879e-9
0.264, 1.881e-9
0.266, 1.895e-9
0.268, 1.882e-9
0.270, 1.886e-9
0.272, 1.897e-9
0.274, 1.906e-9
0.276, 1.910e-9
0.278, 1.915e-9
0.280, 1.944e-9
0.282, 1.952e-9
0.284, 1.970e-9
0.286, 1.993e-9
0.288, 1.980e-9
0.290, 1.987e-9
0.292, 1.980e-9
0.294, 1.987e-9
0.296, 1.998e-9
0.298, 2.022e-9
0.300, 2.001e-9
0.302, 1.999e-9
0.304, 1.997e-9
0.306, 2.010e-9
0.308, 2.027e-9
0.310, 2.030e-9
0.312, 2.035e-9
0.314, 2.052e-9
0.316, 2.054e-9
0.318, 2.047e-9
0.320, 2.064e-9
0.322, 2.070e-9
0.324, 2.106e-9
0.326, 2.113e-9
0.328, 2.108e-9
0.330, 2.119e-9
0.332, 2.120e-9
0.334, 2.115e-9
0.336, 2.115e-9
0.338, 2.123e-9
0.340, 2.127e-9
0.342, 2.133e-9
0.344, 2.128e-9
0.346, 2.137e-9
0.348, 2.137e-9
0.350, 2.139e-9
0.352, 2.147e-9
0.354, 2.157e-9
0.356, 2.179e-9
0.358, 2.180e-9
0.360, 2.174e-9
0.362, 2.185e-9
0.364, 2.190e-9
0.366, 2.199e-9
0.368, 2.201e-9
0.370, 2.202e-9
0.372, 2.201e-9
0.374, 2.212e-9
0.376, 2.211e-9
0.378, 2.221e-9
0.380, 2.219e-9
0.382, 2.224e-9
0.384, 2.222e-9
0.386, 2.230e-9
0.388, 2.234e-9
0.390, 2.240e-9
0.392, 2.251e-9
0.394, 2.263e-9
0.396, 2.265e-9
0.398, 2.275e-9
0.400, 2.276e-9
0.402, 2.280e-9
0.404, 2.300e-9
0.406, 2.291e-9
0.408, 2.319e-9
0.410, 2.312e-9
0.412, 2.334e-9
0.414, 2.326e-9
0.416, 2.348e-9
0.418, 2.368e-9
0.420, 2.369e-9
0.422, 2.386e-9
0.424, 2.399e-9
0.426, 2.397e-9
0.428, 2.405e-9
0.430, 2.409e-9
0.432, 2.412e-9
0.434, 2.416e-9
0.436, 2.422e-9
0.438, 2.431e-9
0.440, 2.444e-9
0.442, 2.445e-9
0.444, 2.464e-9
0.446, 2.456e-9
0.448, 2.460e-9
0.450, 2.468e-9
0.452, 2.477e-9
0.454, 2.485e-9
0.456, 2.509e-9
0.458, 2.505e-9
0.460, 2.505e-9
0.462, 2.531e-9
0.464, 2.529e-9
0.466, 2.543e-9
0.468, 2.548e-9
0.470, 2.566e-9
0.472, 2.588e-9
0.474, 2.587e-9
0.476, 2.585e-9
0.478, 2.601e-9
0.480, 2.597e-9
0.482, 2.611e-9
0.484, 2.606e-9
0.486, 2.616e-9
0.488, 2.632e-9
0.490, 2.627e-9
0.492, 2.633e-9
0.494, 2.635e-9
0.496, 2.641e-9
0.498, 2.651e-9
0.500, 2.644e-9
0.498, 2.531e-9
0.496, 2.477e-9
0.494, 2.437e-9
0.492, 2.391e-9
0.490, 2.384e-9
0.488, 2.406e-9
0.486, 2.426e-9
0.484, 2.412e-9
0.482, 2.400e-9
0.480, 2.377e-9
0.478, 2.353e-9
0.476, 2.314e-9
0.474, 2.281e-9
0.472, 2.251e-9
0.470, 2.235e-9
0.468, 2.213e-9
0.466, 2.191e-9
0.464, 2.155e-9
0.462, 2.126e-9
0.460, 2.105e-9
0.458, 2.076e-9
0.456, 2.043e-9
0.454, 2.025e-9
0.452, 1.998e-9
0.450, 1.980e-9
0.448, 1.965e-9
0.446, 1.949e-9
0.444, 1.924e-9
0.442, 1.908e-9
0.440, 1.878e-9
0.438, 1.851e-9
0.436, 1.836e-9
0.434, 1.847e-9
0.432, 1.806e-9
0.430, 1.777e-9
0.428, 1.753e-9
0.426, 1.737e-9
0.424, 1.716e-9
0.422, 1.699e-9
0.420, 1.676e-9
0.418, 1.653e-9
0.416, 1.635e-9
0.414, 1.631e-9
0.412, 1.612e-9
0.410, 1.599e-9
0.408, 1.581e-9
0.406, 1.575e-9
0.404, 1.553e-9
0.402, 1.540e-9
0.400, 1.518e-9
0.398, 1.508e-9
0.396, 1.483e-9
0.394, 1.470e-9
0.392, 1.458e-9
0.390, 1.441e-9
0.388, 1.426e-9
0.386, 1.405e-9
0.384, 1.395e-9
0.382, 1.375e-9
0.380, 1.354e-9
0.378, 1.334e-9
0.376, 1.325e-9
0.374, 1.309e-9
0.372, 1.296e-9
0.370, 1.281e-9
0.368, 1.269e-9
0.366, 1.250e-9
0.364, 1.235e-9
0.362, 1.223e-9
0.360, 1.208e-9
0.358, 1.196e-9
0.356, 1.179e-9
0.354, 1.162e-9
0.352, 1.149e-9
0.350, 1.140e-9
0.348, 1.127e-9
0.346, 1.117e-9
0.344, 1.105e-9
0.342, 1.086e-9
0.340, 1.074e-9
0.338, 1.068e-9
0.336, 1.052e-9
0.334, 1.036e-9
0.332, 1.023e-9
0.330, 1.010e-9
0.328, 9.986e-10
0.326, 9.837e-10
0.324, 9.712e-10
0.322, 9.604e-10
0.320, 9.480e-10
0.318, 9.311e-10
0.316, 9.208e-10
0.314, 9.053e-10
0.312, 8.902e-10
0.310, 8.809e-10
0.308, 8.647e-10
0.306, 8.488e-10
0.304, 8.388e-10
0.302, 8.271e-10
0.300, 8.127e-10
0.298, 7.992e-10
0.296, 7.855e-10
0.294, 7.740e-10
0.292, 7.598e-10
0.290, 7.504e-10
0.288, 7.451e-10
0.286, 7.262e-10
0.284, 7.115e-10
0.282, 6.996e-10
0.280, 6.876e-10
0.278, 6.756e-10
0.276, 6.633e-10
0.274, 6.516e-10
0.272, 6.413e-10
0.270, 6.306e-10
0.268, 6.178e-10
0.266, 6.085e-10
0.264, 5.941e-10
0.262, 5.847e-10
0.260, 5.725e-10
0.258, 5.609e-10
0.256, 5.489e-10
0.254, 5.362e-10
0.252, 5.242e-10
0.250, 5.123e-10
0.248, 5.005e-10
0.246, 4.940e-10
0.244, 4.779e-10
0.242, 4.626e-10
0.240, 4.467e-10
0.238, 4.330e-10
0.236, 4.217e-10
0.234, 4.107e-10
0.232, 3.997e-10
0.230, 3.898e-10
0.228, 3.782e-10
0.226, 3.681e-10
0.224, 3.550e-10
0.222, 3.442e-10
0.220, 3.338e-10
0.218, 3.198e-10
0.216, 3.069e-10
0.214, 2.951e-10
0.212, 2.837e-10
0.210, 2.723e-10
0.208, 2.623e-10
0.206, 2.507e-10
0.204, 2.402e-10
0.202, 2.271e-10
0.200, 2.158e-10
0.198, 2.034e-10
0.196, 1.935e-10
0.194, 1.808e-10
0.192, 1.687e-10
0.190, 1.593e-10
0.188, 1.474e-10
0.186, 1.368e-10
0.184, 1.258e-10
0.182, 1.155e-10
0.180, 1.038e-10
0.178, 9.391e-11
0.176, 7.900e-11
0.174, 6.915e-11
0.172, 5.677e-11
0.170, 4.625e-11
0.168, 3.523e-11
0.166, 2.392e-11
0.164, 1.057e-11
0.162, -4.484e-13
0.160, -1.254e-11
0.158, -2.306e-11
0.156, -3.759e-11
0.154, -4.890e-11
0.152, -6.011e-11
0.150, -7.073e-11
0.148, -8.321e-11
0.146, -9.315e-11
0.144, -1.048e-10
0.142, -1.161e-10
0.140, -1.253e-10
0.138, -1.374e-10
0.136, -1.478e-10
0.134, -1.589e-10
0.132, -1.705e-10
0.130, -1.804e-10
0.128, -1.906e-10
0.126, -2.010e-10
0.124, -2.116e-10
0.122, -2.208e-10
0.120, -2.337e-10
0.118, -2.419e-10
0.116, -2.570e-10
0.114, -2.693e-10
0.112, -2.796e-10
0.110, -2.910e-10
0.108, -3.019e-10
0.106, -3.118e-10
0.104, -3.224e-10
0.102, -3.346e-10
0.100, -3.433e-10
0.098, -3.518e-10
0.096, -3.601e-10
0.094, -3.715e-10
0.092, -3.809e-10
0.090, -3.928e-10
0.088, -4.034e-10
0.086, -4.149e-10
0.084, -4.258e-10
0.082, -4.352e-10
0.080, -4.458e-10
0.078, -4.572e-10
0.076, -4.677e-10
0.074, -4.814e-10
0.072, -4.922e-10
0.070, -5.038e-10
0.068, -5.145e-10
0.066, -5.261e-10
0.064, -5.353e-10
0.062, -5.459e-10
0.060, -5.548e-10
0.058, -5.642e-10
0.056, -5.744e-10
0.054, -5.839e-10
0.052, -5.924e-10
0.050, -6.003e-10
0.048, -6.102e-10
0.046, -6.201e-10
0.044, -6.304e-10
0.042, -6.393e-10
0.040, -6.493e-10
0.038, -6.601e-10
0.036, -6.706e-10
0.034, -6.809e-10
0.032, -6.912e-10
0.030, -7.006e-10
0.028, -7.114e-10
0.026, -7.222e-10
0.024, -7.346e-10
0.022, -7.467e-10
0.020, -7.596e-10
0.018, -7.729e-10
0.016, -7.851e-10
0.014, -7.970e-10
0.012, -8.070e-10
0.010, -8.180e-10
0.008, -8.309e-10
0.006, -8.449e-10
0.004, -8.615e-10
0.002, -8.768e-10
-0.000, -8.912e-10
-0.002, -9.103e-10
-0.004, -9.295e-10
-0.006, -9.512e-10
-0.008, -9.823e-10
-0.010, -1.018e-9
-0.012, -1.060e-9
-0.014, -1.109e-9
-0.016, -1.161e-9
-0.018, -1.217e-9
-0.020, -1.268e-9
-0.022, -1.310e-9
-0.024, -1.324e-9
-0.026, -1.340e-9
-0.028, -1.372e-9
-0.030, -1.386e-9
-0.032, -1.430e-9
-0.034, -1.426e-9
-0.036, -1.403e-9
-0.038, -1.416e-9
-0.040, -1.453e-9
-0.042, -1.771e-9
-0.044, -1.844e-9
-0.046, -1.832e-9
-0.048, -1.792e-9
-0.050, -2.530e-9
-0.052, -2.784e-9
-0.054, -2.519e-9
-0.056, -2.264e-9
-0.058, -3.500e-9
-0.060, -4.497e-9
-0.062, -6.225e-9
-0.064, -4.573e-9
-0.066, -3.037e-9
-0.068, -2.799e-9
-0.070, -2.762e-9
-0.072, -3.191e-9
-0.074, -2.495e-9
-0.076, -1.484e-9
-0.078, -1.293e-9
-0.080, -1.196e-9
-0.082, -1.202e-9
-0.084, -1.206e-9
-0.086, -1.258e-9
-0.088, -1.607e-9
-0.090, -1.218e-9
-0.092, -1.226e-9
-0.094, -1.233e-9
-0.096, -1.238e-9
-0.098, -1.240e-9
-0.100, -1.256e-9
-0.102, -1.276e-9
-0.104, -1.276e-9
-0.106, -1.268e-9
-0.108, -1.262e-9
-0.110, -1.267e-9
-0.112, -1.276e-9
-0.114, -1.278e-9
-0.116, -1.283e-9
-0.118, -1.319e-9
-0.120, -1.374e-9
-0.122, -1.353e-9
-0.124, -1.310e-9
-0.126, -1.316e-9
-0.128, -1.317e-9
-0.130, -1.315e-9
-0.132, -1.324e-9
-0.134, -1.331e-9
-0.136, -1.369e-9
-0.138, -1.456e-9
-0.140, -1.527e-9
-0.142, -1.399e-9
-0.144, -1.339e-9
-0.146, -1.346e-9
-0.148, -1.352e-9
-0.150, -1.360e-9
-0.152, -1.366e-9
-0.154, -1.371e-9
-0.156, -1.376e-9
-0.158, -1.382e-9
-0.160, -1.393e-9
-0.162, -1.412e-9
-0.164, -1.400e-9
-0.166, -1.402e-9
-0.168, -1.407e-9
-0.170, -1.415e-9
-0.172, -1.425e-9
-0.174, -1.440e-9
-0.176, -1.436e-9
-0.178, -1.436e-9
-0.180, -1.441e-9
-0.182, -1.448e-9
-0.184, -1.456e-9
-0.186, -1.458e-9
-0.188, -1.462e-9
-0.190, -1.483e-9
-0.192, -1.478e-9
-0.194, -1.485e-9
-0.196, -1.504e-9
-0.198, -1.501e-9
-0.200, -1.508e-9
-0.202, -1.518e-9
-0.204, -1.526e-9
-0.206, -1.525e-9
-0.208, -1.541e-9
-0.210, -1.536e-9
-0.212, -1.543e-9
-0.214, -1.548e-9
-0.216, -1.553e-9
-0.218, -1.553e-9
-0.220, -1.563e-9
-0.222, -1.562e-9
-0.224, -1.568e-9
-0.226, -1.578e-9
-0.228, -1.585e-9
-0.230, -1.592e-9
-0.232, -1.600e-9
-0.234, -1.605e-9
-0.236, -1.613e-9
-0.238, -1.621e-9
-0.240, -1.633e-9
-0.242, -1.640e-9
-0.244, -1.648e-9
-0.246, -1.649e-9
-0.248, -1.656e-9
-0.250, -1.661e-9
-0.252, -1.668e-9
-0.254, -1.678e-9
-0.256, -1.700e-9
-0.258, -1.699e-9
-0.260, -1.708e-9
-0.262, -1.713e-9
-0.264, -1.722e-9
-0.266, -1.740e-9
-0.268, -1.732e-9
-0.270, -1.740e-9
-0.272, -1.751e-9
-0.274, -1.757e-9
-0.276, -1.767e-9
-0.278, -1.773e-9
-0.280, -1.940e-9
-0.282, -1.791e-9
-0.284, -1.780e-9
-0.286, -1.785e-9
-0.288, -1.793e-9
-0.290, -1.799e-9
-0.292, -1.801e-9
-0.294, -1.806e-9
-0.296, -1.813e-9
-0.298, -1.824e-9
-0.300, -1.830e-9
-0.302, -1.834e-9
-0.304, -1.840e-9
-0.306, -1.847e-9
-0.308, -1.859e-9
-0.310, -1.863e-9
-0.312, -1.872e-9
-0.314, -1.880e-9
-0.316, -1.890e-9
-0.318, -1.896e-9
-0.320, -1.907e-9
-0.322, -1.915e-9
-0.324, -1.924e-9
-0.326, -1.930e-9
-0.328, -1.935e-9
-0.330, -1.943e-9
-0.332, -1.952e-9
-0.334, -1.959e-9
-0.336, -1.970e-9
-0.338, -1.975e-9
-0.340, -1.984e-9
-0.342, -1.994e-9
-0.344, -2.001e-9
-0.346, -2.007e-9
-0.348, -2.020e-9
-0.350, -2.028e-9
-0.352, -2.035e-9
-0.354, -2.043e-9
-0.356, -2.049e-9
-0.358, -2.061e-9
-0.360, -2.061e-9
-0.362, -2.070e-9
-0.364, -2.079e-9
-0.366, -2.090e-9
-0.368, -2.099e-9
-0.370, -2.104e-9
-0.372, -2.111e-9
-0.374, -2.122e-9
-0.376, -2.129e-9
-0.378, -2.137e-9
-0.380, -2.148e-9
-0.382, -2.156e-9
-0.384, -2.165e-9
-0.386, -2.170e-9
-0.388, -2.182e-9
-0.390, -2.197e-9
-0.392, -2.203e-9
-0.394, -2.213e-9
-0.396, -2.222e-9
-0.398, -2.233e-9
-0.400, -2.250e-9
-0.402, -2.255e-9
-0.404, -2.267e-9
-0.406, -2.274e-9
-0.408, -2.282e-9
-0.410, -2.290e-9
-0.412, -2.297e-9
-0.414, -2.304e-9
-0.416, -2.310e-9
-0.418, -2.319e-9
-0.420, -2.328e-9
-0.422, -2.333e-9
-0.424, -2.341e-9
-0.426, -2.346e-9
-0.428, -2.355e-9
-0.430, -2.364e-9
-0.432, -2.371e-9
-0.434, -2.375e-9
-0.436, -2.384e-9
-0.438, -2.392e-9
-0.440, -2.400e-9
-0.442, -2.410e-9
-0.444, -2.447e-9
-0.446, -2.453e-9
-0.448, -2.462e-9
-0.450, -2.469e-9
-0.452, -2.475e-9
-0.454, -2.482e-9
-0.456, -2.489e-9
-0.458, -2.494e-9
-0.460, -2.504e-9
-0.462, -2.511e-9
-0.464, -2.518e-9
-0.466, -2.525e-9
-0.468, -2.535e-9
-0.470, -2.542e-9
-0.472, -2.550e-9
-0.474, -2.558e-9
-0.476, -2.565e-9
-0.478, -2.574e-9
-0.480, -2.579e-9
-0.482, -2.584e-9
-0.484, -2.592e-9
-0.486, -2.601e-9
-0.488, -2.612e-9
-0.490, -2.621e-9
-0.492, -2.626e-9
-0.494, -2.633e-9
-0.496, -2.642e-9
-0.498, -2.650e-9
-0.499, -2.653e-9