File: Supplementary Fig 4/Fig S4d Bulk CVs post incubation/CV_dark_incubation_B.txt
Nov. 21, 2024   11:39:58
Cyclic Voltammetry
File: +12 2319-1 fto cv_cells_light_bulk 50 mv s-1.bin
Data Source:  Experiment
Instrument Model:  CHI920C
Ref. Electrode:
Header:
Note:

Init E (V) = -0.5
High E (V) = 0.5
Low E (V) = -0.5
Init P/N = P
Scan Rate (V/s) = 0.05
Segment = 2
Sample Interval (V) = 0.001
Quiet Time (sec) = 10
Sensitivity (A/V) = 1e-7

Results:

Channel 1:
Segment 1:
Ep = 0.114V
ip = 7.346e-11A
Ah = 1.032e-10C

Segment 2:

Potential/V, Current/A

-0.500, -2.147e-9
-0.498, -2.100e-9
-0.496, -2.062e-9
-0.494, -2.029e-9
-0.492, -1.996e-9
-0.490, -1.965e-9
-0.488, -1.935e-9
-0.486, -1.907e-9
-0.484, -1.878e-9
-0.482, -1.850e-9
-0.480, -1.821e-9
-0.478, -1.797e-9
-0.476, -1.772e-9
-0.474, -1.744e-9
-0.472, -1.716e-9
-0.470, -1.691e-9
-0.468, -1.667e-9
-0.466, -1.644e-9
-0.464, -1.620e-9
-0.462, -1.597e-9
-0.460, -1.575e-9
-0.458, -1.552e-9
-0.456, -1.530e-9
-0.454, -1.507e-9
-0.452, -1.479e-9
-0.450, -1.455e-9
-0.448, -1.433e-9
-0.446, -1.413e-9
-0.444, -1.391e-9
-0.442, -1.371e-9
-0.440, -1.350e-9
-0.438, -1.330e-9
-0.436, -1.312e-9
-0.434, -1.294e-9
-0.432, -1.275e-9
-0.430, -1.254e-9
-0.428, -1.231e-9
-0.426, -1.211e-9
-0.424, -1.192e-9
-0.422, -1.174e-9
-0.420, -1.156e-9
-0.418, -1.139e-9
-0.416, -1.120e-9
-0.414, -1.103e-9
-0.412, -1.087e-9
-0.410, -1.070e-9
-0.408, -1.056e-9
-0.406, -1.040e-9
-0.404, -1.022e-9
-0.402, -1.004e-9
-0.400, -9.858e-10
-0.398, -9.686e-10
-0.396, -9.540e-10
-0.394, -9.392e-10
-0.392, -9.236e-10
-0.390, -9.084e-10
-0.388, -8.947e-10
-0.386, -8.804e-10
-0.384, -8.672e-10
-0.382, -8.528e-10
-0.380, -8.402e-10
-0.378, -8.274e-10
-0.376, -8.170e-10
-0.374, -8.045e-10
-0.372, -7.919e-10
-0.370, -7.791e-10
-0.368, -7.653e-10
-0.366, -7.509e-10
-0.364, -7.370e-10
-0.362, -7.249e-10
-0.360, -7.125e-10
-0.358, -7.005e-10
-0.356, -6.892e-10
-0.354, -6.771e-10
-0.352, -6.666e-10
-0.350, -6.545e-10
-0.348, -6.434e-10
-0.346, -6.328e-10
-0.344, -6.209e-10
-0.342, -6.107e-10
-0.340, -5.999e-10
-0.338, -5.902e-10
-0.336, -5.811e-10
-0.334, -5.714e-10
-0.332, -5.612e-10
-0.330, -5.505e-10
-0.328, -5.395e-10
-0.326, -5.289e-10
-0.324, -5.170e-10
-0.322, -5.058e-10
-0.320, -4.951e-10
-0.318, -4.839e-10
-0.316, -4.733e-10
-0.314, -4.643e-10
-0.312, -4.557e-10
-0.310, -4.455e-10
-0.308, -4.371e-10
-0.306, -4.260e-10
-0.304, -4.178e-10
-0.302, -4.086e-10
-0.300, -3.997e-10
-0.298, -3.909e-10
-0.296, -3.823e-10
-0.294, -3.730e-10
-0.292, -3.654e-10
-0.290, -3.574e-10
-0.288, -3.486e-10
-0.286, -3.414e-10
-0.284, -3.345e-10
-0.282, -3.276e-10
-0.280, -3.195e-10
-0.278, -3.118e-10
-0.276, -3.035e-10
-0.274, -2.955e-10
-0.272, -2.876e-10
-0.270, -2.775e-10
-0.268, -2.685e-10
-0.266, -2.600e-10
-0.264, -2.511e-10
-0.262, -2.425e-10
-0.260, -2.339e-10
-0.258, -2.260e-10
-0.256, -2.183e-10
-0.254, -2.116e-10
-0.252, -2.043e-10
-0.250, -1.963e-10
-0.248, -1.884e-10
-0.246, -1.819e-10
-0.244, -1.755e-10
-0.242, -1.675e-10
-0.240, -1.606e-10
-0.238, -1.521e-10
-0.236, -1.456e-10
-0.234, -1.382e-10
-0.232, -1.314e-10
-0.230, -1.251e-10
-0.228, -1.173e-10
-0.226, -1.115e-10
-0.224, -1.054e-10
-0.222, -9.842e-11
-0.220, -9.189e-11
-0.218, -8.565e-11
-0.216, -8.038e-11
-0.214, -7.229e-11
-0.212, -6.615e-11
-0.210, -5.864e-11
-0.208, -5.172e-11
-0.206, -4.471e-11
-0.204, -3.749e-11
-0.202, -2.999e-11
-0.200, -2.248e-11
-0.198, -1.585e-11
-0.196, -6.687e-12
-0.194, 1.365e-13
-0.192, 5.985e-12
-0.190, 1.300e-11
-0.188, 2.032e-11
-0.186, 2.626e-11
-0.184, 3.348e-11
-0.182, 3.893e-11
-0.180, 4.478e-11
-0.178, 4.966e-11
-0.176, 5.658e-11
-0.174, 6.282e-11
-0.172, 6.974e-11
-0.170, 7.520e-11
-0.168, 8.153e-11
-0.166, 8.836e-11
-0.164, 9.391e-11
-0.162, 1.003e-10
-0.160, 1.063e-10
-0.158, 1.123e-10
-0.156, 1.185e-10
-0.154, 1.239e-10
-0.152, 1.296e-10
-0.150, 1.349e-10
-0.148, 1.398e-10
-0.146, 1.464e-10
-0.144, 1.508e-10
-0.142, 1.557e-10
-0.140, 1.603e-10
-0.138, 1.652e-10
-0.136, 1.708e-10
-0.134, 1.765e-10
-0.132, 1.818e-10
-0.130, 1.882e-10
-0.128, 1.942e-10
-0.126, 2.002e-10
-0.124, 2.063e-10
-0.122, 2.125e-10
-0.120, 2.192e-10
-0.118, 2.247e-10
-0.116, 2.311e-10
-0.114, 2.367e-10
-0.112, 2.428e-10
-0.110, 2.489e-10
-0.108, 2.542e-10
-0.106, 2.594e-10
-0.104, 2.653e-10
-0.102, 2.711e-10
-0.100, 2.766e-10
-0.098, 2.816e-10
-0.096, 2.863e-10
-0.094, 2.913e-10
-0.092, 2.968e-10
-0.090, 3.015e-10
-0.088, 3.066e-10
-0.086, 3.124e-10
-0.084, 3.175e-10
-0.082, 3.227e-10
-0.080, 3.273e-10
-0.078, 3.317e-10
-0.076, 3.375e-10
-0.074, 3.426e-10
-0.072, 3.475e-10
-0.070, 3.530e-10
-0.068, 3.574e-10
-0.066, 3.623e-10
-0.064, 3.667e-10
-0.062, 3.719e-10
-0.060, 3.770e-10
-0.058, 3.811e-10
-0.056, 3.858e-10
-0.054, 3.898e-10
-0.052, 3.945e-10
-0.050, 3.983e-10
-0.048, 4.029e-10
-0.046, 4.070e-10
-0.044, 4.128e-10
-0.042, 4.160e-10
-0.040, 4.215e-10
-0.038, 4.263e-10
-0.036, 4.314e-10
-0.034, 4.372e-10
-0.032, 4.419e-10
-0.030, 4.475e-10
-0.028, 4.534e-10
-0.026, 4.593e-10
-0.024, 4.652e-10
-0.022, 4.700e-10
-0.020, 4.752e-10
-0.018, 4.808e-10
-0.016, 4.867e-10
-0.014, 4.920e-10
-0.012, 4.968e-10
-0.010, 5.019e-10
-0.008, 5.069e-10
-0.006, 5.116e-10
-0.004, 5.165e-10
-0.002, 5.214e-10
0.000, 5.247e-10
0.002, 5.306e-10
0.004, 5.357e-10
0.006, 5.400e-10
0.008, 5.445e-10
0.010, 5.493e-10
0.012, 5.546e-10
0.014, 5.593e-10
0.016, 5.648e-10
0.018, 5.699e-10
0.020, 5.752e-10
0.022, 5.798e-10
0.024, 5.854e-10
0.026, 5.899e-10
0.028, 5.960e-10
0.030, 6.010e-10
0.032, 6.072e-10
0.034, 6.112e-10
0.036, 6.181e-10
0.038, 6.226e-10
0.040, 6.280e-10
0.042, 6.326e-10
0.044, 6.385e-10
0.046, 6.446e-10
0.048, 6.502e-10
0.050, 6.563e-10
0.052, 6.622e-10
0.054, 6.688e-10
0.056, 6.751e-10
0.058, 6.822e-10
0.060, 6.891e-10
0.062, 6.962e-10
0.064, 7.031e-10
0.066, 7.111e-10
0.068, 7.189e-10
0.070, 7.251e-10
0.072, 7.327e-10
0.074, 7.400e-10
0.076, 7.465e-10
0.078, 7.539e-10
0.080, 7.600e-10
0.082, 7.668e-10
0.084, 7.738e-10
0.086, 7.794e-10
0.088, 7.854e-10
0.090, 7.931e-10
0.092, 7.983e-10
0.094, 8.045e-10
0.096, 8.096e-10
0.098, 8.156e-10
0.100, 8.201e-10
0.102, 8.259e-10
0.104, 8.312e-10
0.106, 8.369e-10
0.108, 8.416e-10
0.110, 8.459e-10
0.112, 8.468e-10
0.114, 8.476e-10
0.116, 8.442e-10
0.118, 8.373e-10
0.120, 8.296e-10
0.122, 8.253e-10
0.124, 8.215e-10
0.126, 8.197e-10
0.128, 8.174e-10
0.130, 8.154e-10
0.132, 8.149e-10
0.134, 8.146e-10
0.136, 8.138e-10
0.138, 8.140e-10
0.140, 8.150e-10
0.142, 8.150e-10
0.144, 8.163e-10
0.146, 8.167e-10
0.148, 8.182e-10
0.150, 8.192e-10
0.152, 8.218e-10
0.154, 8.226e-10
0.156, 8.248e-10
0.158, 8.267e-10
0.160, 8.287e-10
0.162, 8.310e-10
0.164, 8.333e-10
0.166, 8.356e-10
0.168, 8.390e-10
0.170, 8.418e-10
0.172, 8.438e-10
0.174, 8.473e-10
0.176, 8.506e-10
0.178, 8.546e-10
0.180, 8.549e-10
0.182, 8.590e-10
0.184, 8.602e-10
0.186, 8.630e-10
0.188, 8.681e-10
0.190, 8.710e-10
0.192, 8.737e-10
0.194, 8.762e-10
0.196, 8.791e-10
0.198, 8.830e-10
0.200, 8.849e-10
0.202, 8.872e-10
0.204, 8.907e-10
0.206, 8.925e-10
0.208, 8.967e-10
0.210, 8.982e-10
0.212, 9.004e-10
0.214, 9.035e-10
0.216, 9.047e-10
0.218, 9.077e-10
0.220, 9.106e-10
0.222, 9.123e-10
0.224, 9.142e-10
0.226, 9.167e-10
0.228, 9.191e-10
0.230, 9.215e-10
0.232, 9.239e-10
0.234, 9.256e-10
0.236, 9.292e-10
0.238, 9.296e-10
0.240, 9.333e-10
0.242, 9.346e-10
0.244, 9.367e-10
0.246, 9.381e-10
0.248, 9.401e-10
0.250, 9.414e-10
0.252, 9.443e-10
0.254, 9.452e-10
0.256, 9.473e-10
0.258, 9.497e-10
0.260, 9.511e-10
0.262, 9.519e-10
0.264, 9.542e-10
0.266, 9.563e-10
0.268, 9.587e-10
0.270, 9.599e-10
0.272, 9.622e-10
0.274, 9.636e-10
0.276, 9.654e-10
0.278, 9.678e-10
0.280, 9.692e-10
0.282, 9.711e-10
0.284, 9.727e-10
0.286, 9.744e-10
0.288, 9.765e-10
0.290, 9.786e-10
0.292, 9.800e-10
0.294, 9.823e-10
0.296, 9.846e-10
0.298, 9.861e-10
0.300, 9.878e-10
0.302, 9.896e-10
0.304, 9.925e-10
0.306, 9.940e-10
0.308, 9.977e-10
0.310, 9.989e-10
0.312, 1.000e-9
0.314, 1.003e-9
0.316, 1.004e-9
0.318, 1.006e-9
0.320, 1.008e-9
0.322, 1.010e-9
0.324, 1.012e-9
0.326, 1.014e-9
0.328, 1.016e-9
0.330, 1.018e-9
0.332, 1.021e-9
0.334, 1.022e-9
0.336, 1.024e-9
0.338, 1.026e-9
0.340, 1.029e-9
0.342, 1.031e-9
0.344, 1.033e-9
0.346, 1.035e-9
0.348, 1.037e-9
0.350, 1.040e-9
0.352, 1.042e-9
0.354, 1.044e-9
0.356, 1.046e-9
0.358, 1.048e-9
0.360, 1.051e-9
0.362, 1.052e-9
0.364, 1.055e-9
0.366, 1.058e-9
0.368, 1.059e-9
0.370, 1.061e-9
0.372, 1.064e-9
0.374, 1.066e-9
0.376, 1.070e-9
0.378, 1.071e-9
0.380, 1.073e-9
0.382, 1.075e-9
0.384, 1.076e-9
0.386, 1.080e-9
0.388, 1.082e-9
0.390, 1.085e-9
0.392, 1.086e-9
0.394, 1.089e-9
0.396, 1.091e-9
0.398, 1.093e-9
0.400, 1.095e-9
0.402, 1.097e-9
0.404, 1.099e-9
0.406, 1.101e-9
0.408, 1.103e-9
0.410, 1.104e-9
0.412, 1.106e-9
0.414, 1.108e-9
0.416, 1.110e-9
0.418, 1.112e-9
0.420, 1.115e-9
0.422, 1.117e-9
0.424, 1.119e-9
0.426, 1.121e-9
0.428, 1.123e-9
0.430, 1.125e-9
0.432, 1.127e-9
0.434, 1.129e-9
0.436, 1.132e-9
0.438, 1.135e-9
0.440, 1.137e-9
0.442, 1.139e-9
0.444, 1.141e-9
0.446, 1.142e-9
0.448, 1.145e-9
0.450, 1.147e-9
0.452, 1.150e-9
0.454, 1.153e-9
0.456, 1.155e-9
0.458, 1.159e-9
0.460, 1.160e-9
0.462, 1.164e-9
0.464, 1.166e-9
0.466, 1.169e-9
0.468, 1.172e-9
0.470, 1.174e-9
0.472, 1.178e-9
0.474, 1.181e-9
0.476, 1.183e-9
0.478, 1.186e-9
0.480, 1.190e-9
0.482, 1.192e-9
0.484, 1.195e-9
0.486, 1.198e-9
0.488, 1.201e-9
0.490, 1.203e-9
0.492, 1.207e-9
0.494, 1.210e-9
0.496, 1.213e-9
0.498, 1.215e-9
0.500, 1.209e-9
0.498, 1.154e-9
0.496, 1.129e-9
0.494, 1.109e-9
0.492, 1.091e-9
0.490, 1.074e-9
0.488, 1.058e-9
0.486, 1.043e-9
0.484, 1.027e-9
0.482, 1.014e-9
0.480, 1.001e-9
0.478, 9.885e-10
0.476, 9.767e-10
0.474, 9.645e-10
0.472, 9.519e-10
0.470, 9.396e-10
0.468, 9.272e-10
0.466, 9.159e-10
0.464, 9.050e-10
0.462, 8.937e-10
0.460, 8.833e-10
0.458, 8.743e-10
0.456, 8.636e-10
0.454, 8.548e-10
0.452, 8.444e-10
0.450, 8.346e-10
0.448, 8.254e-10
0.446, 8.162e-10
0.444, 8.068e-10
0.442, 7.977e-10
0.440, 7.885e-10
0.438, 7.804e-10
0.436, 7.720e-10
0.434, 7.642e-10
0.432, 7.562e-10
0.430, 7.493e-10
0.428, 7.420e-10
0.426, 7.338e-10
0.424, 7.251e-10
0.422, 7.164e-10
0.420, 7.072e-10
0.418, 6.986e-10
0.416, 6.910e-10
0.414, 6.827e-10
0.412, 6.745e-10
0.410, 6.680e-10
0.408, 6.615e-10
0.406, 6.549e-10
0.404, 6.469e-10
0.402, 6.397e-10
0.400, 6.330e-10
0.398, 6.270e-10
0.396, 6.198e-10
0.394, 6.119e-10
0.392, 6.041e-10
0.390, 5.977e-10
0.388, 5.925e-10
0.386, 5.847e-10
0.384, 5.787e-10
0.382, 5.719e-10
0.380, 5.645e-10
0.378, 5.579e-10
0.376, 5.513e-10
0.374, 5.443e-10
0.372, 5.378e-10
0.370, 5.313e-10
0.368, 5.247e-10
0.366, 5.186e-10
0.364, 5.115e-10
0.362, 5.047e-10
0.360, 4.971e-10
0.358, 4.915e-10
0.356, 4.835e-10
0.354, 4.768e-10
0.352, 4.683e-10
0.350, 4.614e-10
0.348, 4.537e-10
0.346, 4.447e-10
0.344, 4.374e-10
0.342, 4.328e-10
0.340, 4.254e-10
0.338, 4.192e-10
0.336, 4.137e-10
0.334, 4.079e-10
0.332, 4.024e-10
0.330, 3.965e-10
0.328, 3.915e-10
0.326, 3.851e-10
0.324, 3.802e-10
0.322, 3.750e-10
0.320, 3.704e-10
0.318, 3.642e-10
0.316, 3.591e-10
0.314, 3.536e-10
0.312, 3.470e-10
0.310, 3.425e-10
0.308, 3.364e-10
0.306, 3.294e-10
0.304, 3.243e-10
0.302, 3.196e-10
0.300, 3.135e-10
0.298, 3.091e-10
0.296, 3.041e-10
0.294, 2.989e-10
0.292, 2.932e-10
0.290, 2.883e-10
0.288, 2.826e-10
0.286, 2.776e-10
0.284, 2.726e-10
0.282, 2.674e-10
0.280, 2.628e-10
0.278, 2.582e-10
0.276, 2.523e-10
0.274, 2.465e-10
0.272, 2.413e-10
0.270, 2.347e-10
0.268, 2.299e-10
0.266, 2.244e-10
0.264, 2.183e-10
0.262, 2.125e-10
0.260, 2.068e-10
0.258, 2.012e-10
0.256, 1.960e-10
0.254, 1.900e-10
0.252, 1.853e-10
0.250, 1.793e-10
0.248, 1.740e-10
0.246, 1.708e-10
0.244, 1.662e-10
0.242, 1.614e-10
0.240, 1.569e-10
0.238, 1.532e-10
0.236, 1.491e-10
0.234, 1.446e-10
0.232, 1.399e-10
0.230, 1.358e-10
0.228, 1.306e-10
0.226, 1.262e-10
0.224, 1.221e-10
0.222, 1.169e-10
0.220, 1.126e-10
0.218, 1.073e-10
0.216, 1.035e-10
0.214, 9.889e-11
0.212, 9.304e-11
0.210, 8.923e-11
0.208, 8.504e-11
0.206, 7.958e-11
0.204, 7.578e-11
0.202, 7.101e-11
0.200, 6.681e-11
0.198, 6.262e-11
0.196, 5.697e-11
0.194, 5.258e-11
0.192, 4.751e-11
0.190, 4.400e-11
0.188, 3.903e-11
0.186, 3.533e-11
0.184, 3.045e-11
0.182, 2.655e-11
0.180, 2.158e-11
0.178, 1.837e-11
0.176, 1.232e-11
0.174, 8.227e-12
0.172, 3.938e-12
0.170, -1.521e-12
0.168, -5.517e-12
0.166, -1.107e-11
0.164, -1.605e-11
0.162, -2.024e-11
0.160, -2.550e-11
0.158, -3.106e-11
0.156, -3.554e-11
0.154, -4.139e-11
0.152, -4.568e-11
0.150, -5.046e-11
0.148, -5.553e-11
0.146, -5.894e-11
0.144, -6.401e-11
0.142, -6.888e-11
0.140, -7.288e-11
0.138, -7.756e-11
0.136, -8.185e-11
0.134, -8.555e-11
0.132, -8.974e-11
0.130, -9.345e-11
0.128, -9.744e-11
0.126, -1.016e-10
0.124, -1.051e-10
0.122, -1.099e-10
0.120, -1.136e-10
0.118, -1.185e-10
0.116, -1.226e-10
0.114, -1.262e-10
0.112, -1.305e-10
0.110, -1.346e-10
0.108, -1.395e-10
0.106, -1.429e-10
0.104, -1.474e-10
0.102, -1.526e-10
0.100, -1.564e-10
0.098, -1.605e-10
0.096, -1.640e-10
0.094, -1.684e-10
0.092, -1.742e-10
0.090, -1.781e-10
0.088, -1.822e-10
0.086, -1.862e-10
0.084, -1.907e-10
0.082, -1.946e-10
0.080, -1.985e-10
0.078, -2.025e-10
0.076, -2.069e-10
0.074, -2.109e-10
0.072, -2.151e-10
0.070, -2.199e-10
0.068, -2.246e-10
0.066, -2.288e-10
0.064, -2.335e-10
0.062, -2.380e-10
0.060, -2.434e-10
0.058, -2.478e-10
0.056, -2.520e-10
0.054, -2.572e-10
0.052, -2.615e-10
0.050, -2.668e-10
0.048, -2.707e-10
0.046, -2.762e-10
0.044, -2.823e-10
0.042, -2.868e-10
0.040, -2.918e-10
0.038, -2.967e-10
0.036, -3.010e-10
0.034, -3.068e-10
0.032, -3.108e-10
0.030, -3.152e-10
0.028, -3.185e-10
0.026, -3.230e-10
0.024, -3.265e-10
0.022, -3.310e-10
0.020, -3.346e-10
0.018, -3.388e-10
0.016, -3.435e-10
0.014, -3.473e-10
0.012, -3.518e-10
0.010, -3.556e-10
0.008, -3.608e-10
0.006, -3.645e-10
0.004, -3.686e-10
0.002, -3.733e-10
-0.000, -3.767e-10
-0.002, -3.820e-10
-0.004, -3.883e-10
-0.006, -3.934e-10
-0.008, -3.991e-10
-0.010, -4.038e-10
-0.012, -4.090e-10
-0.014, -4.139e-10
-0.016, -4.199e-10
-0.018, -4.244e-10
-0.020, -4.288e-10
-0.022, -4.330e-10
-0.024, -4.386e-10
-0.026, -4.406e-10
-0.028, -4.455e-10
-0.030, -4.481e-10
-0.032, -4.533e-10
-0.034, -4.591e-10
-0.036, -4.636e-10
-0.038, -4.682e-10
-0.040, -4.731e-10
-0.042, -4.773e-10
-0.044, -4.833e-10
-0.046, -4.891e-10
-0.048, -4.955e-10
-0.050, -5.005e-10
-0.052, -5.070e-10
-0.054, -5.123e-10
-0.056, -5.178e-10
-0.058, -5.247e-10
-0.060, -5.313e-10
-0.062, -5.353e-10
-0.064, -5.406e-10
-0.066, -5.467e-10
-0.068, -5.530e-10
-0.070, -5.573e-10
-0.072, -5.625e-10
-0.074, -5.674e-10
-0.076, -5.726e-10
-0.078, -5.776e-10
-0.080, -5.820e-10
-0.082, -5.876e-10
-0.084, -5.914e-10
-0.086, -5.963e-10
-0.088, -6.023e-10
-0.090, -6.065e-10
-0.092, -6.123e-10
-0.094, -6.173e-10
-0.096, -6.227e-10
-0.098, -6.279e-10
-0.100, -6.332e-10
-0.102, -6.400e-10
-0.104, -6.451e-10
-0.106, -6.509e-10
-0.108, -6.574e-10
-0.110, -6.621e-10
-0.112, -6.679e-10
-0.114, -6.734e-10
-0.116, -6.798e-10
-0.118, -6.853e-10
-0.120, -6.910e-10
-0.122, -6.959e-10
-0.124, -7.010e-10
-0.126, -7.062e-10
-0.128, -7.115e-10
-0.130, -7.174e-10
-0.132, -7.228e-10
-0.134, -7.297e-10
-0.136, -7.354e-10
-0.138, -7.413e-10
-0.140, -7.476e-10
-0.142, -7.531e-10
-0.144, -7.597e-10
-0.146, -7.658e-10
-0.148, -7.730e-10
-0.150, -7.786e-10
-0.152, -7.848e-10
-0.154, -7.906e-10
-0.156, -7.955e-10
-0.158, -8.017e-10
-0.160, -8.070e-10
-0.162, -8.125e-10
-0.164, -8.177e-10
-0.166, -8.227e-10
-0.168, -8.289e-10
-0.170, -8.327e-10
-0.172, -8.384e-10
-0.174, -8.443e-10
-0.176, -8.489e-10
-0.178, -8.556e-10
-0.180, -8.608e-10
-0.182, -8.669e-10
-0.184, -8.727e-10
-0.186, -8.783e-10
-0.188, -8.841e-10
-0.190, -8.911e-10
-0.192, -8.974e-10
-0.194, -9.037e-10
-0.196, -9.097e-10
-0.198, -9.158e-10
-0.200, -9.210e-10
-0.202, -9.272e-10
-0.204, -9.339e-10
-0.206, -9.380e-10
-0.208, -9.464e-10
-0.210, -9.510e-10
-0.212, -9.564e-10
-0.214, -9.634e-10
-0.216, -9.684e-10
-0.218, -9.761e-10
-0.220, -9.834e-10
-0.222, -9.901e-10
-0.224, -9.970e-10
-0.226, -1.004e-9
-0.228, -1.011e-9
-0.230, -1.018e-9
-0.232, -1.025e-9
-0.234, -1.032e-9
-0.236, -1.038e-9
-0.238, -1.045e-9
-0.240, -1.051e-9
-0.242, -1.059e-9
-0.244, -1.064e-9
-0.246, -1.070e-9
-0.248, -1.075e-9
-0.250, -1.081e-9
-0.252, -1.087e-9
-0.254, -1.093e-9
-0.256, -1.099e-9
-0.258, -1.106e-9
-0.260, -1.112e-9
-0.262, -1.120e-9
-0.264, -1.125e-9
-0.266, -1.132e-9
-0.268, -1.138e-9
-0.270, -1.146e-9
-0.272, -1.152e-9
-0.274, -1.160e-9
-0.276, -1.166e-9
-0.278, -1.172e-9
-0.280, -1.178e-9
-0.282, -1.184e-9
-0.284, -1.191e-9
-0.286, -1.198e-9
-0.288, -1.204e-9
-0.290, -1.212e-9
-0.292, -1.218e-9
-0.294, -1.226e-9
-0.296, -1.233e-9
-0.298, -1.242e-9
-0.300, -1.250e-9
-0.302, -1.257e-9
-0.304, -1.267e-9
-0.306, -1.275e-9
-0.308, -1.284e-9
-0.310, -1.289e-9
-0.312, -1.297e-9
-0.314, -1.303e-9
-0.316, -1.310e-9
-0.318, -1.318e-9
-0.320, -1.324e-9
-0.322, -1.331e-9
-0.324, -1.337e-9
-0.326, -1.346e-9
-0.328, -1.352e-9
-0.330, -1.360e-9
-0.332, -1.369e-9
-0.334, -1.378e-9
-0.336, -1.385e-9
-0.338, -1.393e-9
-0.340, -1.400e-9
-0.342, -1.407e-9
-0.344, -1.416e-9
-0.346, -1.423e-9
-0.348, -1.433e-9
-0.350, -1.440e-9
-0.352, -1.449e-9
-0.354, -1.458e-9
-0.356, -1.467e-9
-0.358, -1.477e-9
-0.360, -1.489e-9
-0.362, -1.498e-9
-0.364, -1.508e-9
-0.366, -1.518e-9
-0.368, -1.528e-9
-0.370, -1.538e-9
-0.372, -1.547e-9
-0.374, -1.555e-9
-0.376, -1.564e-9
-0.378, -1.573e-9
-0.380, -1.583e-9
-0.382, -1.593e-9
-0.384, -1.604e-9
-0.386, -1.614e-9
-0.388, -1.624e-9
-0.390, -1.634e-9
-0.392, -1.645e-9
-0.394, -1.654e-9
-0.396, -1.666e-9
-0.398, -1.676e-9
-0.400, -1.687e-9
-0.402, -1.698e-9
-0.404, -1.710e-9
-0.406, -1.723e-9
-0.408, -1.736e-9
-0.410, -1.749e-9
-0.412, -1.763e-9
-0.414, -1.775e-9
-0.416, -1.785e-9
-0.418, -1.797e-9
-0.420, -1.810e-9
-0.422, -1.822e-9
-0.424, -1.837e-9
-0.426, -1.850e-9
-0.428, -1.864e-9
-0.430, -1.879e-9
-0.432, -1.892e-9
-0.434, -1.907e-9
-0.436, -1.921e-9
-0.438, -1.935e-9
-0.440, -1.950e-9
-0.442, -1.964e-9
-0.444, -1.981e-9
-0.446, -1.998e-9
-0.448, -2.012e-9
-0.450, -2.029e-9
-0.452, -2.044e-9
-0.454, -2.059e-9
-0.456, -2.075e-9
-0.458, -2.092e-9
-0.460, -2.109e-9
-0.462, -2.127e-9
-0.464, -2.143e-9
-0.466, -2.160e-9
-0.468, -2.176e-9
-0.470, -2.192e-9
-0.472, -2.211e-9
-0.474, -2.230e-9
-0.476, -2.249e-9
-0.478, -2.266e-9
-0.480, -2.282e-9
-0.482, -2.300e-9
-0.484, -2.318e-9
-0.486, -2.336e-9
-0.488, -2.356e-9
-0.490, -2.375e-9
-0.492, -2.393e-9
-0.494, -2.411e-9
-0.496, -2.429e-9
-0.498, -2.449e-9
-0.499, -2.458e-9