File: Supplementary Fig 4/Fig S4d Bulk CVs post incubation/CV_light_incubation_C.csv
Sept. 26, 2024   14:34:41
Cyclic Voltammetry
File: c:\users\secm\desktop\data\lmxlm2\+12 2319-1\26-09-2024 - lamp inside cage\region 2\+12 2319-1 fto cv_cells_light_bulk.csv
Data Source:  Experiment
Instrument Model:  CHI920C
Ref. Electrode:
Header:
Note:

Init E (V) = -0.5
High E (V) = 0.5
Low E (V) = -0.5
Init P/N = P
Scan Rate (V/s) = 0.05
Segment = 2
Sample Interval (V) = 0.001
Quiet Time (sec) = 10
Sensitivity (A/V) = 1e-7

Results:

Channel 1:
Segment 1:
Ep = 0.133V
ip = 2.273e-8A
Ah = 1.093e-8C

Segment 2:
Ep = -0.053V
ip = -1.252e-9A
Ah = -1.725e-9C

Potential/V, Current/A

-0.500, -2.057e-9
-0.498, -1.878e-9
-0.496, -1.806e-9
-0.494, -1.755e-9
-0.492, -1.703e-9
-0.490, -1.665e-9
-0.488, -1.628e-9
-0.486, -1.596e-9
-0.484, -1.561e-9
-0.482, -1.531e-9
-0.480, -1.500e-9
-0.478, -1.470e-9
-0.476, -1.440e-9
-0.474, -1.414e-9
-0.472, -1.388e-9
-0.470, -1.363e-9
-0.468, -1.339e-9
-0.466, -1.316e-9
-0.464, -1.295e-9
-0.462, -1.274e-9
-0.460, -1.248e-9
-0.458, -1.222e-9
-0.456, -1.202e-9
-0.454, -1.180e-9
-0.452, -1.158e-9
-0.450, -1.139e-9
-0.448, -1.117e-9
-0.446, -1.096e-9
-0.444, -1.079e-9
-0.442, -1.059e-9
-0.440, -1.041e-9
-0.438, -1.023e-9
-0.436, -9.990e-10
-0.434, -9.788e-10
-0.432, -9.605e-10
-0.430, -9.415e-10
-0.428, -9.241e-10
-0.426, -9.061e-10
-0.424, -8.893e-10
-0.422, -8.703e-10
-0.420, -8.519e-10
-0.418, -8.348e-10
-0.416, -8.199e-10
-0.414, -8.060e-10
-0.412, -7.898e-10
-0.410, -7.716e-10
-0.408, -7.544e-10
-0.406, -7.362e-10
-0.404, -7.181e-10
-0.402, -7.010e-10
-0.400, -6.879e-10
-0.398, -6.702e-10
-0.396, -6.543e-10
-0.394, -6.376e-10
-0.392, -6.241e-10
-0.390, -6.087e-10
-0.388, -5.934e-10
-0.386, -5.790e-10
-0.384, -5.647e-10
-0.382, -5.474e-10
-0.380, -5.308e-10
-0.378, -5.143e-10
-0.376, -4.970e-10
-0.374, -4.829e-10
-0.372, -4.663e-10
-0.370, -4.519e-10
-0.368, -4.374e-10
-0.366, -4.225e-10
-0.364, -4.080e-10
-0.362, -3.938e-10
-0.360, -3.790e-10
-0.358, -3.637e-10
-0.356, -3.504e-10
-0.354, -3.371e-10
-0.352, -3.245e-10
-0.350, -3.114e-10
-0.348, -2.982e-10
-0.346, -2.802e-10
-0.344, -2.649e-10
-0.342, -2.508e-10
-0.340, -2.355e-10
-0.338, -2.225e-10
-0.336, -2.075e-10
-0.334, -1.939e-10
-0.332, -1.812e-10
-0.330, -1.644e-10
-0.328, -1.523e-10
-0.326, -1.405e-10
-0.324, -1.266e-10
-0.322, -1.131e-10
-0.320, -1.010e-10
-0.318, -8.779e-11
-0.316, -7.434e-11
-0.314, -5.933e-11
-0.312, -4.568e-11
-0.310, -3.213e-11
-0.308, -1.692e-11
-0.306, 2.379e-12
-0.304, 1.320e-11
-0.302, 2.548e-11
-0.300, 3.845e-11
-0.298, 5.219e-11
-0.296, 6.467e-11
-0.294, 7.646e-11
-0.292, 9.011e-11
-0.290, 1.013e-10
-0.288, 1.152e-10
-0.286, 1.275e-10
-0.284, 1.396e-10
-0.282, 1.520e-10
-0.280, 1.639e-10
-0.278, 1.751e-10
-0.276, 1.877e-10
-0.274, 2.023e-10
-0.272, 2.141e-10
-0.270, 2.288e-10
-0.268, 2.418e-10
-0.266, 2.563e-10
-0.264, 2.691e-10
-0.262, 2.802e-10
-0.260, 2.922e-10
-0.258, 3.050e-10
-0.256, 3.182e-10
-0.254, 3.303e-10
-0.252, 3.438e-10
-0.250, 3.579e-10
-0.248, 3.696e-10
-0.246, 3.808e-10
-0.244, 3.918e-10
-0.242, 4.026e-10
-0.240, 4.143e-10
-0.238, 4.273e-10
-0.236, 4.427e-10
-0.234, 4.571e-10
-0.232, 4.734e-10
-0.230, 4.844e-10
-0.228, 5.009e-10
-0.226, 5.135e-10
-0.224, 5.261e-10
-0.222, 5.393e-10
-0.220, 5.528e-10
-0.218, 5.656e-10
-0.216, 5.769e-10
-0.214, 5.889e-10
-0.212, 6.031e-10
-0.210, 6.157e-10
-0.208, 6.282e-10
-0.206, 6.405e-10
-0.204, 6.472e-10
-0.202, 6.626e-10
-0.200, 6.756e-10
-0.198, 6.892e-10
-0.196, 7.026e-10
-0.194, 7.158e-10
-0.192, 7.278e-10
-0.190, 7.421e-10
-0.188, 7.546e-10
-0.186, 7.664e-10
-0.184, 7.787e-10
-0.182, 7.894e-10
-0.180, 8.032e-10
-0.178, 8.157e-10
-0.176, 8.301e-10
-0.174, 8.432e-10
-0.172, 8.563e-10
-0.170, 8.694e-10
-0.168, 8.833e-10
-0.166, 8.933e-10
-0.164, 9.093e-10
-0.162, 9.216e-10
-0.160, 9.367e-10
-0.158, 9.497e-10
-0.156, 9.625e-10
-0.154, 9.740e-10
-0.152, 9.873e-10
-0.150, 1.002e-9
-0.148, 1.015e-9
-0.146, 1.027e-9
-0.144, 1.039e-9
-0.142, 1.053e-9
-0.140, 1.066e-9
-0.138, 1.080e-9
-0.136, 1.092e-9
-0.134, 1.104e-9
-0.132, 1.119e-9
-0.130, 1.131e-9
-0.128, 1.143e-9
-0.126, 1.158e-9
-0.124, 1.170e-9
-0.122, 1.186e-9
-0.120, 1.201e-9
-0.118, 1.217e-9
-0.116, 1.231e-9
-0.114, 1.245e-9
-0.112, 1.259e-9
-0.110, 1.274e-9
-0.108, 1.289e-9
-0.106, 1.303e-9
-0.104, 1.319e-9
-0.102, 1.341e-9
-0.100, 1.353e-9
-0.098, 1.368e-9
-0.096, 1.382e-9
-0.094, 1.398e-9
-0.092, 1.416e-9
-0.090, 1.434e-9
-0.088, 1.449e-9
-0.086, 1.465e-9
-0.084, 1.483e-9
-0.082, 1.499e-9
-0.080, 1.514e-9
-0.078, 1.532e-9
-0.076, 1.549e-9
-0.074, 1.568e-9
-0.072, 1.585e-9
-0.070, 1.601e-9
-0.068, 1.618e-9
-0.066, 1.636e-9
-0.064, 1.656e-9
-0.062, 1.676e-9
-0.060, 1.696e-9
-0.058, 1.716e-9
-0.056, 1.738e-9
-0.054, 1.756e-9
-0.052, 1.778e-9
-0.050, 1.800e-9
-0.048, 1.822e-9
-0.046, 1.844e-9
-0.044, 1.866e-9
-0.042, 1.889e-9
-0.040, 1.913e-9
-0.038, 1.935e-9
-0.036, 1.960e-9
-0.034, 1.983e-9
-0.032, 2.007e-9
-0.030, 2.034e-9
-0.028, 2.059e-9
-0.026, 2.084e-9
-0.024, 2.107e-9
-0.022, 2.133e-9
-0.020, 2.163e-9
-0.018, 2.195e-9
-0.016, 2.221e-9
-0.014, 2.249e-9
-0.012, 2.278e-9
-0.010, 2.310e-9
-0.008, 2.341e-9
-0.006, 2.374e-9
-0.004, 2.407e-9
-0.002, 2.440e-9
0.000, 2.467e-9
0.002, 2.505e-9
0.004, 2.540e-9
0.006, 2.576e-9
0.008, 2.610e-9
0.010, 2.650e-9
0.012, 2.694e-9
0.014, 2.735e-9
0.016, 2.776e-9
0.018, 2.816e-9
0.020, 2.857e-9
0.022, 2.902e-9
0.024, 2.946e-9
0.026, 2.991e-9
0.028, 3.040e-9
0.030, 3.084e-9
0.032, 3.135e-9
0.034, 3.191e-9
0.036, 3.246e-9
0.038, 3.299e-9
0.040, 3.356e-9
0.042, 3.416e-9
0.044, 3.479e-9
0.046, 3.541e-9
0.048, 3.603e-9
0.050, 3.674e-9
0.052, 3.746e-9
0.054, 3.818e-9
0.056, 3.893e-9
0.058, 3.970e-9
0.060, 4.050e-9
0.062, 4.134e-9
0.064, 4.225e-9
0.066, 4.313e-9
0.068, 4.410e-9
0.070, 4.509e-9
0.072, 4.615e-9
0.074, 4.722e-9
0.076, 4.833e-9
0.078, 4.947e-9
0.080, 5.072e-9
0.082, 5.198e-9
0.084, 5.330e-9
0.086, 5.469e-9
0.088, 5.613e-9
0.090, 5.756e-9
0.092, 5.917e-9
0.094, 6.079e-9
0.096, 6.262e-9
0.098, 6.457e-9
0.100, 6.684e-9
0.102, 6.986e-9
0.104, 7.388e-9
0.106, 7.876e-9
0.108, 8.513e-9
0.110, 9.265e-9
0.112, 1.010e-8
0.114, 1.104e-8
0.116, 1.212e-8
0.118, 1.362e-8
0.120, 1.571e-8
0.122, 1.812e-8
0.124, 1.942e-8
0.126, 1.955e-8
0.128, 2.035e-8
0.130, 2.310e-8
0.132, 2.557e-8
0.134, 2.504e-8
0.136, 2.192e-8
0.138, 1.815e-8
0.140, 1.473e-8
0.142, 1.213e-8
0.144, 1.037e-8
0.146, 9.205e-9
0.148, 8.433e-9
0.150, 7.883e-9
0.152, 7.481e-9
0.154, 7.174e-9
0.156, 6.936e-9
0.158, 6.740e-9
0.160, 6.582e-9
0.162, 6.455e-9
0.164, 6.343e-9
0.166, 6.249e-9
0.168, 6.165e-9
0.170, 6.095e-9
0.172, 6.030e-9
0.174, 5.980e-9
0.176, 5.930e-9
0.178, 5.888e-9
0.180, 5.852e-9
0.182, 5.817e-9
0.184, 5.783e-9
0.186, 5.757e-9
0.188, 5.736e-9
0.190, 5.717e-9
0.192, 5.697e-9
0.194, 5.679e-9
0.196, 5.664e-9
0.198, 5.653e-9
0.200, 5.644e-9
0.202, 5.633e-9
0.204, 5.625e-9
0.206, 5.612e-9
0.208, 5.607e-9
0.210, 5.604e-9
0.212, 5.604e-9
0.214, 5.603e-9
0.216, 5.600e-9
0.218, 5.599e-9
0.220, 5.600e-9
0.222, 5.601e-9
0.224, 5.606e-9
0.226, 5.605e-9
0.228, 5.606e-9
0.230, 5.611e-9
0.232, 5.615e-9
0.234, 5.618e-9
0.236, 5.626e-9
0.238, 5.632e-9
0.240, 5.638e-9
0.242, 5.643e-9
0.244, 5.648e-9
0.246, 5.654e-9
0.248, 5.662e-9
0.250, 5.669e-9
0.252, 5.677e-9
0.254, 5.686e-9
0.256, 5.690e-9
0.258, 5.701e-9
0.260, 5.708e-9
0.262, 5.719e-9
0.264, 5.726e-9
0.266, 5.732e-9
0.268, 5.740e-9
0.270, 5.750e-9
0.272, 5.758e-9
0.274, 5.767e-9
0.276, 5.776e-9
0.278, 5.783e-9
0.280, 5.792e-9
0.282, 5.799e-9
0.284, 5.812e-9
0.286, 5.823e-9
0.288, 5.833e-9
0.290, 5.841e-9
0.292, 5.849e-9
0.294, 5.858e-9
0.296, 5.866e-9
0.298, 5.873e-9
0.300, 5.884e-9
0.302, 5.893e-9
0.304, 5.900e-9
0.306, 5.909e-9
0.308, 5.930e-9
0.310, 5.932e-9
0.312, 5.939e-9
0.314, 5.948e-9
0.316, 5.957e-9
0.318, 5.966e-9
0.320, 5.973e-9
0.322, 5.979e-9
0.324, 5.988e-9
0.326, 5.996e-9
0.328, 6.003e-9
0.330, 6.009e-9
0.332, 6.017e-9
0.334, 6.025e-9
0.336, 6.033e-9
0.338, 6.040e-9
0.340, 6.048e-9
0.342, 6.055e-9
0.344, 6.065e-9
0.346, 6.068e-9
0.348, 6.077e-9
0.350, 6.085e-9
0.352, 6.092e-9
0.354, 6.097e-9
0.356, 6.103e-9
0.358, 6.110e-9
0.360, 6.114e-9
0.362, 6.119e-9
0.364, 6.126e-9
0.366, 6.132e-9
0.368, 6.139e-9
0.370, 6.144e-9
0.372, 6.148e-9
0.374, 6.153e-9
0.376, 6.158e-9
0.378, 6.166e-9
0.380, 6.172e-9
0.382, 6.178e-9
0.384, 6.179e-9
0.386, 6.185e-9
0.388, 6.191e-9
0.390, 6.197e-9
0.392, 6.203e-9
0.394, 6.205e-9
0.396, 6.211e-9
0.398, 6.216e-9
0.400, 6.218e-9
0.402, 6.224e-9
0.404, 6.232e-9
0.406, 6.239e-9
0.408, 6.241e-9
0.410, 6.228e-9
0.412, 6.244e-9
0.414, 6.249e-9
0.416, 6.256e-9
0.418, 6.262e-9
0.420, 6.268e-9
0.422, 6.274e-9
0.424, 6.277e-9
0.426, 6.282e-9
0.428, 6.288e-9
0.430, 6.295e-9
0.432, 6.301e-9
0.434, 6.307e-9
0.436, 6.311e-9
0.438, 6.319e-9
0.440, 6.323e-9
0.442, 6.331e-9
0.444, 6.339e-9
0.446, 6.344e-9
0.448, 6.350e-9
0.450, 6.356e-9
0.452, 6.364e-9
0.454, 6.373e-9
0.456, 6.380e-9
0.458, 6.386e-9
0.460, 6.394e-9
0.462, 6.399e-9
0.464, 6.407e-9
0.466, 6.417e-9
0.468, 6.426e-9
0.470, 6.434e-9
0.472, 6.441e-9
0.474, 6.449e-9
0.476, 6.458e-9
0.478, 6.466e-9
0.480, 6.477e-9
0.482, 6.484e-9
0.484, 6.492e-9
0.486, 6.501e-9
0.488, 6.510e-9
0.490, 6.518e-9
0.492, 6.530e-9
0.494, 6.541e-9
0.496, 6.550e-9
0.498, 6.563e-9
0.500, 6.476e-9
0.498, 5.836e-9
0.496, 5.524e-9
0.494, 5.288e-9
0.492, 5.095e-9
0.490, 4.929e-9
0.488, 4.784e-9
0.486, 4.658e-9
0.484, 4.536e-9
0.482, 4.427e-9
0.480, 4.327e-9
0.478, 4.240e-9
0.476, 4.153e-9
0.474, 4.067e-9
0.472, 3.994e-9
0.470, 3.922e-9
0.468, 3.852e-9
0.466, 3.787e-9
0.464, 3.726e-9
0.462, 3.664e-9
0.460, 3.604e-9
0.458, 3.551e-9
0.456, 3.497e-9
0.454, 3.443e-9
0.452, 3.391e-9
0.450, 3.340e-9
0.448, 3.292e-9
0.446, 3.246e-9
0.444, 3.201e-9
0.442, 3.151e-9
0.440, 3.104e-9
0.438, 3.065e-9
0.436, 3.020e-9
0.434, 2.978e-9
0.432, 2.939e-9
0.430, 2.900e-9
0.428, 2.856e-9
0.426, 2.817e-9
0.424, 2.780e-9
0.422, 2.742e-9
0.420, 2.703e-9
0.418, 2.664e-9
0.416, 2.622e-9
0.414, 2.586e-9
0.412, 2.551e-9
0.410, 2.519e-9
0.408, 2.484e-9
0.406, 2.447e-9
0.404, 2.410e-9
0.402, 2.374e-9
0.400, 2.340e-9
0.398, 2.302e-9
0.396, 2.266e-9
0.394, 2.231e-9
0.392, 2.198e-9
0.390, 2.162e-9
0.388, 2.126e-9
0.386, 2.096e-9
0.384, 2.064e-9
0.382, 2.032e-9
0.380, 1.999e-9
0.378, 1.967e-9
0.376, 1.934e-9
0.374, 1.901e-9
0.372, 1.867e-9
0.370, 1.835e-9
0.368, 1.802e-9
0.366, 1.768e-9
0.364, 1.735e-9
0.362, 1.706e-9
0.360, 1.674e-9
0.358, 1.643e-9
0.356, 1.611e-9
0.354, 1.582e-9
0.352, 1.551e-9
0.350, 1.521e-9
0.348, 1.491e-9
0.346, 1.462e-9
0.344, 1.430e-9
0.342, 1.401e-9
0.340, 1.369e-9
0.338, 1.336e-9
0.336, 1.307e-9
0.334, 1.279e-9
0.332, 1.250e-9
0.330, 1.221e-9
0.328, 1.192e-9
0.326, 1.161e-9
0.324, 1.132e-9
0.322, 1.108e-9
0.320, 1.082e-9
0.318, 1.054e-9
0.316, 1.026e-9
0.314, 9.999e-10
0.312, 9.730e-10
0.310, 9.449e-10
0.308, 9.167e-10
0.306, 8.842e-10
0.304, 8.611e-10
0.302, 8.333e-10
0.300, 8.051e-10
0.298, 7.801e-10
0.296, 7.555e-10
0.294, 7.324e-10
0.292, 7.060e-10
0.290, 6.809e-10
0.288, 6.533e-10
0.286, 6.287e-10
0.284, 6.049e-10
0.282, 5.799e-10
0.280, 5.559e-10
0.278, 5.332e-10
0.276, 5.077e-10
0.274, 4.807e-10
0.272, 4.550e-10
0.270, 4.282e-10
0.268, 4.047e-10
0.266, 3.814e-10
0.264, 3.599e-10
0.262, 3.398e-10
0.260, 3.167e-10
0.258, 2.944e-10
0.256, 2.751e-10
0.254, 2.520e-10
0.252, 2.299e-10
0.250, 2.068e-10
0.248, 1.828e-10
0.246, 1.661e-10
0.244, 1.461e-10
0.242, 1.271e-10
0.240, 1.082e-10
0.238, 8.836e-11
0.236, 6.740e-11
0.234, 4.966e-11
0.232, 3.045e-11
0.230, 1.125e-11
0.228, -9.222e-12
0.226, -2.852e-11
0.224, -4.968e-11
0.222, -6.888e-11
0.220, -8.828e-11
0.218, -1.047e-10
0.216, -1.234e-10
0.214, -1.398e-10
0.212, -1.597e-10
0.210, -1.781e-10
0.208, -1.968e-10
0.206, -2.128e-10
0.204, -2.263e-10
0.202, -2.459e-10
0.200, -2.655e-10
0.198, -2.872e-10
0.196, -3.059e-10
0.194, -3.219e-10
0.192, -3.369e-10
0.190, -3.516e-10
0.188, -3.679e-10
0.186, -3.865e-10
0.184, -4.034e-10
0.182, -4.203e-10
0.180, -4.369e-10
0.178, -4.549e-10
0.176, -4.711e-10
0.174, -4.901e-10
0.172, -5.099e-10
0.170, -5.310e-10
0.168, -5.499e-10
0.166, -5.654e-10
0.164, -5.827e-10
0.162, -5.985e-10
0.160, -6.157e-10
0.158, -6.320e-10
0.156, -6.509e-10
0.154, -6.690e-10
0.152, -6.866e-10
0.150, -7.031e-10
0.148, -7.229e-10
0.146, -7.419e-10
0.144, -7.604e-10
0.142, -7.799e-10
0.140, -7.975e-10
0.138, -8.162e-10
0.136, -8.326e-10
0.134, -8.525e-10
0.132, -8.718e-10
0.130, -8.901e-10
0.128, -9.080e-10
0.126, -9.270e-10
0.124, -9.454e-10
0.122, -9.665e-10
0.120, -9.882e-10
0.118, -1.013e-9
0.116, -1.035e-9
0.114, -1.054e-9
0.112, -1.073e-9
0.110, -1.096e-9
0.108, -1.117e-9
0.106, -1.135e-9
0.104, -1.157e-9
0.102, -1.186e-9
0.100, -1.203e-9
0.098, -1.225e-9
0.096, -1.251e-9
0.094, -1.275e-9
0.092, -1.297e-9
0.090, -1.317e-9
0.088, -1.341e-9
0.086, -1.362e-9
0.084, -1.387e-9
0.082, -1.412e-9
0.080, -1.434e-9
0.078, -1.459e-9
0.076, -1.486e-9
0.074, -1.516e-9
0.072, -1.542e-9
0.070, -1.567e-9
0.068, -1.594e-9
0.066, -1.620e-9
0.064, -1.644e-9
0.062, -1.671e-9
0.060, -1.696e-9
0.058, -1.728e-9
0.056, -1.758e-9
0.054, -1.787e-9
0.052, -1.814e-9
0.050, -1.845e-9
0.048, -1.879e-9
0.046, -1.909e-9
0.044, -1.941e-9
0.042, -1.975e-9
0.040, -2.008e-9
0.038, -2.040e-9
0.036, -2.074e-9
0.034, -2.108e-9
0.032, -2.144e-9
0.030, -2.177e-9
0.028, -2.214e-9
0.026, -2.251e-9
0.024, -2.284e-9
0.022, -2.319e-9
0.020, -2.361e-9
0.018, -2.397e-9
0.016, -2.431e-9
0.014, -2.469e-9
0.012, -2.507e-9
0.010, -2.543e-9
0.008, -2.576e-9
0.006, -2.615e-9
0.004, -2.649e-9
0.002, -2.682e-9
-0.000, -2.713e-9
-0.002, -2.752e-9
-0.004, -2.785e-9
-0.006, -2.819e-9
-0.008, -2.855e-9
-0.010, -2.887e-9
-0.012, -2.919e-9
-0.014, -2.950e-9
-0.016, -2.983e-9
-0.018, -3.014e-9
-0.020, -3.044e-9
-0.022, -3.076e-9
-0.024, -3.110e-9
-0.026, -3.141e-9
-0.028, -3.179e-9
-0.030, -3.221e-9
-0.032, -3.265e-9
-0.034, -3.313e-9
-0.036, -3.363e-9
-0.038, -3.413e-9
-0.040, -3.470e-9
-0.042, -3.515e-9
-0.044, -3.564e-9
-0.046, -3.604e-9
-0.048, -3.669e-9
-0.050, -3.699e-9
-0.052, -3.685e-9
-0.054, -3.705e-9
-0.056, -3.663e-9
-0.058, -3.658e-9
-0.060, -3.632e-9
-0.062, -3.576e-9
-0.064, -3.540e-9
-0.066, -3.514e-9
-0.068, -3.474e-9
-0.070, -3.464e-9
-0.072, -3.486e-9
-0.074, -3.465e-9
-0.076, -3.490e-9
-0.078, -3.481e-9
-0.080, -3.496e-9
-0.082, -3.501e-9
-0.084, -3.491e-9
-0.086, -3.508e-9
-0.088, -3.496e-9
-0.090, -3.502e-9
-0.092, -3.513e-9
-0.094, -3.531e-9
-0.096, -3.578e-9
-0.098, -3.563e-9
-0.100, -3.548e-9
-0.102, -3.543e-9
-0.104, -3.567e-9
-0.106, -3.550e-9
-0.108, -3.558e-9
-0.110, -3.661e-9
-0.112, -3.549e-9
-0.114, -3.629e-9
-0.116, -3.590e-9
-0.118, -3.583e-9
-0.120, -3.582e-9
-0.122, -3.570e-9
-0.124, -3.613e-9
-0.126, -3.618e-9
-0.128, -3.598e-9
-0.130, -3.613e-9
-0.132, -3.586e-9
-0.134, -3.620e-9
-0.136, -3.639e-9
-0.138, -3.589e-9
-0.140, -3.616e-9
-0.142, -3.621e-9
-0.144, -3.600e-9
-0.146, -3.611e-9
-0.148, -3.620e-9
-0.150, -3.609e-9
-0.152, -3.621e-9
-0.154, -3.602e-9
-0.156, -3.693e-9
-0.158, -3.648e-9
-0.160, -3.635e-9
-0.162, -3.620e-9
-0.164, -3.614e-9
-0.166, -3.617e-9
-0.168, -3.643e-9
-0.170, -3.628e-9
-0.172, -3.663e-9
-0.174, -3.652e-9
-0.176, -3.667e-9
-0.178, -3.635e-9
-0.180, -3.629e-9
-0.182, -3.637e-9
-0.184, -3.635e-9
-0.186, -3.643e-9
-0.188, -3.661e-9
-0.190, -3.641e-9
-0.192, -3.671e-9
-0.194, -3.686e-9
-0.196, -3.653e-9
-0.198, -3.668e-9
-0.200, -3.662e-9
-0.202, -3.716e-9
-0.204, -3.674e-9
-0.206, -3.675e-9
-0.208, -3.675e-9
-0.210, -3.679e-9
-0.212, -3.663e-9
-0.214, -3.678e-9
-0.216, -3.710e-9
-0.218, -3.676e-9
-0.220, -3.692e-9
-0.222, -3.686e-9
-0.224, -3.671e-9
-0.226, -3.688e-9
-0.228, -3.686e-9
-0.230, -3.688e-9
-0.232, -3.684e-9
-0.234, -3.722e-9
-0.236, -3.690e-9
-0.238, -3.694e-9
-0.240, -3.703e-9
-0.242, -3.704e-9
-0.244, -3.714e-9
-0.246, -3.707e-9
-0.248, -3.708e-9
-0.250, -3.730e-9
-0.252, -3.733e-9
-0.254, -3.717e-9
-0.256, -3.736e-9
-0.258, -3.757e-9
-0.260, -3.737e-9
-0.262, -3.751e-9
-0.264, -3.740e-9
-0.266, -3.743e-9
-0.268, -3.750e-9
-0.270, -3.758e-9
-0.272, -3.747e-9
-0.274, -3.749e-9
-0.276, -3.755e-9
-0.278, -3.766e-9
-0.280, -3.777e-9
-0.282, -3.770e-9
-0.284, -3.772e-9
-0.286, -3.773e-9
-0.288, -3.773e-9
-0.290, -3.785e-9
-0.292, -3.787e-9
-0.294, -3.802e-9
-0.296, -3.789e-9
-0.298, -3.788e-9
-0.300, -3.793e-9
-0.302, -3.812e-9
-0.304, -3.809e-9
-0.306, -3.831e-9
-0.308, -3.828e-9
-0.310, -3.831e-9
-0.312, -3.825e-9
-0.314, -3.832e-9
-0.316, -3.844e-9
-0.318, -3.842e-9
-0.320, -3.851e-9
-0.322, -3.866e-9
-0.324, -3.855e-9
-0.326, -3.868e-9
-0.328, -3.868e-9
-0.330, -3.878e-9
-0.332, -3.885e-9
-0.334, -3.884e-9
-0.336, -3.895e-9
-0.338, -3.905e-9
-0.340, -3.897e-9
-0.342, -3.926e-9
-0.344, -3.910e-9
-0.346, -3.916e-9
-0.348, -3.943e-9
-0.350, -3.940e-9
-0.352, -3.931e-9
-0.354, -3.939e-9
-0.356, -3.960e-9
-0.358, -3.956e-9
-0.360, -3.957e-9
-0.362, -3.969e-9
-0.364, -3.969e-9
-0.366, -3.986e-9
-0.368, -3.990e-9
-0.370, -3.985e-9
-0.372, -3.993e-9
-0.374, -3.994e-9
-0.376, -4.004e-9
-0.378, -4.013e-9
-0.380, -4.014e-9
-0.382, -4.020e-9
-0.384, -4.032e-9
-0.386, -4.033e-9
-0.388, -4.036e-9
-0.390, -4.044e-9
-0.392, -4.051e-9
-0.394, -4.059e-9
-0.396, -4.065e-9
-0.398, -4.078e-9
-0.400, -4.080e-9
-0.402, -4.102e-9
-0.404, -4.097e-9
-0.406, -4.101e-9
-0.408, -4.119e-9
-0.410, -4.123e-9
-0.412, -4.125e-9
-0.414, -4.134e-9
-0.416, -4.153e-9
-0.418, -4.156e-9
-0.420, -4.161e-9
-0.422, -4.166e-9
-0.424, -4.185e-9
-0.426, -4.180e-9
-0.428, -4.190e-9
-0.430, -4.206e-9
-0.432, -4.209e-9
-0.434, -4.226e-9
-0.436, -4.230e-9
-0.438, -4.234e-9
-0.440, -4.237e-9
-0.442, -4.253e-9
-0.444, -4.253e-9
-0.446, -4.262e-9
-0.448, -4.270e-9
-0.450, -4.278e-9
-0.452, -4.292e-9
-0.454, -4.297e-9
-0.456, -4.307e-9
-0.458, -4.320e-9
-0.460, -4.335e-9
-0.462, -4.334e-9
-0.464, -4.348e-9
-0.466, -4.352e-9
-0.468, -4.365e-9
-0.470, -4.375e-9
-0.472, -4.380e-9
-0.474, -4.391e-9
-0.476, -4.402e-9
-0.478, -4.412e-9
-0.480, -4.424e-9
-0.482, -4.431e-9
-0.484, -4.440e-9
-0.486, -4.453e-9
-0.488, -4.465e-9
-0.490, -4.469e-9
-0.492, -4.480e-9
-0.494, -4.493e-9
-0.496, -4.504e-9
-0.498, -4.512e-9
-0.499, -4.515e-9