File: Supplementary Fig 4/Fig S4d Bulk CVs post incubation/CV_light_incubation_A.csv
Sept. 25, 2024   13:19:09
Cyclic Voltammetry
File: c:\users\secm\desktop\data\lmxlm2\+12 2319-1\25-09-2024\+12 2319-1_fto_light_bulk_cv.csv
Data Source:  Experiment
Instrument Model:  CHI920C
Ref. Electrode:
Header:
Note:

Init E (V) = -0.5
High E (V) = 0.5
Low E (V) = -0.5
Init P/N = P
Scan Rate (V/s) = 0.01
Segment = 2
Sample Interval (V) = 0.001
Quiet Time (sec) = 10
Sensitivity (A/V) = 1e-8

Results:

Channel 1:
Segment 1:
Ep = 0.106V
ip = 7.309e-11A
Ah = 3.075e-10C

Segment 2:

Potential/V, Current/A

-0.500, -1.037e-9
-0.498, -1.019e-9
-0.496, -1.001e-9
-0.494, -9.845e-10
-0.492, -9.731e-10
-0.490, -9.560e-10
-0.488, -9.426e-10
-0.486, -9.281e-10
-0.484, -9.138e-10
-0.482, -9.034e-10
-0.480, -8.919e-10
-0.478, -8.820e-10
-0.476, -8.700e-10
-0.474, -8.604e-10
-0.472, -8.515e-10
-0.470, -8.425e-10
-0.468, -8.342e-10
-0.466, -8.244e-10
-0.464, -8.165e-10
-0.462, -8.108e-10
-0.460, -8.019e-10
-0.458, -7.945e-10
-0.456, -7.873e-10
-0.454, -7.781e-10
-0.452, -7.705e-10
-0.450, -7.643e-10
-0.448, -7.581e-10
-0.446, -7.503e-10
-0.444, -7.432e-10
-0.442, -7.371e-10
-0.440, -7.299e-10
-0.438, -7.229e-10
-0.436, -7.183e-10
-0.434, -7.124e-10
-0.432, -7.047e-10
-0.430, -6.980e-10
-0.428, -6.919e-10
-0.426, -6.847e-10
-0.424, -6.774e-10
-0.422, -6.713e-10
-0.420, -6.655e-10
-0.418, -6.588e-10
-0.416, -6.527e-10
-0.414, -6.462e-10
-0.412, -6.398e-10
-0.410, -6.322e-10
-0.408, -6.262e-10
-0.406, -6.203e-10
-0.404, -6.149e-10
-0.402, -6.087e-10
-0.400, -6.037e-10
-0.398, -5.976e-10
-0.396, -5.910e-10
-0.394, -5.841e-10
-0.392, -5.766e-10
-0.390, -5.689e-10
-0.388, -5.597e-10
-0.386, -5.498e-10
-0.384, -5.400e-10
-0.382, -5.287e-10
-0.380, -5.184e-10
-0.378, -5.072e-10
-0.376, -4.962e-10
-0.374, -4.838e-10
-0.372, -4.664e-10
-0.370, -4.481e-10
-0.368, -4.328e-10
-0.366, -4.207e-10
-0.364, -4.081e-10
-0.362, -3.981e-10
-0.360, -3.909e-10
-0.358, -3.823e-10
-0.356, -3.737e-10
-0.354, -3.681e-10
-0.352, -3.619e-10
-0.350, -3.541e-10
-0.348, -3.484e-10
-0.346, -3.410e-10
-0.344, -3.334e-10
-0.342, -3.257e-10
-0.340, -3.211e-10
-0.338, -3.148e-10
-0.336, -3.099e-10
-0.334, -3.044e-10
-0.332, -3.005e-10
-0.330, -2.959e-10
-0.328, -2.902e-10
-0.326, -2.857e-10
-0.324, -2.819e-10
-0.322, -2.772e-10
-0.320, -2.716e-10
-0.318, -2.671e-10
-0.316, -2.628e-10
-0.314, -2.589e-10
-0.312, -2.544e-10
-0.310, -2.505e-10
-0.308, -2.457e-10
-0.306, -2.418e-10
-0.304, -2.386e-10
-0.302, -2.357e-10
-0.300, -2.318e-10
-0.298, -2.286e-10
-0.296, -2.261e-10
-0.294, -2.225e-10
-0.292, -2.186e-10
-0.290, -2.160e-10
-0.288, -2.132e-10
-0.286, -2.093e-10
-0.284, -2.061e-10
-0.282, -2.033e-10
-0.280, -2.000e-10
-0.278, -1.973e-10
-0.276, -1.937e-10
-0.274, -1.912e-10
-0.272, -1.890e-10
-0.270, -1.854e-10
-0.268, -1.820e-10
-0.266, -1.798e-10
-0.264, -1.773e-10
-0.262, -1.745e-10
-0.260, -1.717e-10
-0.258, -1.689e-10
-0.256, -1.685e-10
-0.254, -1.931e-10
-0.252, -1.929e-10
-0.250, -1.896e-10
-0.248, -1.868e-10
-0.246, -1.838e-10
-0.244, -1.807e-10
-0.242, -1.777e-10
-0.240, -1.746e-10
-0.238, -1.707e-10
-0.236, -1.770e-10
-0.234, -1.828e-10
-0.232, -1.807e-10
-0.230, -1.783e-10
-0.228, -1.753e-10
-0.226, -1.721e-10
-0.224, -1.684e-10
-0.222, -1.655e-10
-0.220, -1.627e-10
-0.218, -1.597e-10
-0.216, -1.563e-10
-0.214, -1.530e-10
-0.212, -1.490e-10
-0.210, -1.448e-10
-0.208, -1.409e-10
-0.206, -1.369e-10
-0.204, -1.332e-10
-0.202, -1.292e-10
-0.200, -1.251e-10
-0.198, -1.321e-10
-0.196, -1.317e-10
-0.194, -1.296e-10
-0.192, -1.266e-10
-0.190, -1.234e-10
-0.188, -1.202e-10
-0.186, -1.174e-10
-0.184, -1.145e-10
-0.182, -1.115e-10
-0.180, -1.089e-10
-0.178, -1.063e-10
-0.176, -1.036e-10
-0.174, -1.004e-10
-0.172, -9.727e-11
-0.170, -9.455e-11
-0.168, -9.184e-11
-0.166, -8.880e-11
-0.164, -8.596e-11
-0.162, -8.329e-11
-0.160, -8.089e-11
-0.158, -7.823e-11
-0.156, -7.479e-11
-0.154, -7.221e-11
-0.152, -6.950e-11
-0.150, -6.656e-11
-0.148, -6.348e-11
-0.146, -6.086e-11
-0.144, -5.808e-11
-0.142, -5.531e-11
-0.140, -5.319e-11
-0.138, -4.990e-11
-0.136, -4.692e-11
-0.134, -4.400e-11
-0.132, -4.158e-11
-0.130, -3.872e-11
-0.128, -3.597e-11
-0.126, -3.339e-11
-0.124, -3.090e-11
-0.122, -2.783e-11
-0.120, -2.502e-11
-0.118, -2.202e-11
-0.116, -1.934e-11
-0.114, -1.640e-11
-0.112, -1.333e-11
-0.110, -1.145e-11
-0.108, -8.110e-12
-0.106, -5.584e-12
-0.104, -2.550e-12
-0.102, 1.185e-12
-0.100, 3.837e-12
-0.098, 6.395e-12
-0.096, 9.179e-12
-0.094, 1.189e-11
-0.092, 1.437e-11
-0.090, 1.671e-11
-0.088, 1.964e-11
-0.086, 2.234e-11
-0.084, 2.530e-11
-0.082, 2.803e-11
-0.080, 3.063e-11
-0.078, 3.321e-11
-0.076, 3.581e-11
-0.074, 3.840e-11
-0.072, 4.080e-11
-0.070, 4.368e-11
-0.068, 4.671e-11
-0.066, 4.979e-11
-0.064, 5.241e-11
-0.062, 5.515e-11
-0.060, 5.789e-11
-0.058, 6.070e-11
-0.056, 6.329e-11
-0.054, 6.565e-11
-0.052, 6.831e-11
-0.050, 7.116e-11
-0.048, 7.409e-11
-0.046, 7.648e-11
-0.044, 7.925e-11
-0.042, 8.165e-11
-0.040, 8.450e-11
-0.038, 8.724e-11
-0.036, 9.003e-11
-0.034, 9.258e-11
-0.032, 9.570e-11
-0.030, 9.839e-11
-0.028, 1.008e-10
-0.026, 1.033e-10
-0.024, 1.059e-10
-0.022, 1.087e-10
-0.020, 1.116e-10
-0.018, 1.141e-10
-0.016, 1.168e-10
-0.014, 1.197e-10
-0.012, 1.227e-10
-0.010, 1.255e-10
-0.008, 1.282e-10
-0.006, 1.308e-10
-0.004, 1.339e-10
-0.002, 1.368e-10
0.000, 1.392e-10
0.002, 1.421e-10
0.004, 1.455e-10
0.006, 1.486e-10
0.008, 1.516e-10
0.010, 1.546e-10
0.012, 1.575e-10
0.014, 1.606e-10
0.016, 1.633e-10
0.018, 1.668e-10
0.020, 1.702e-10
0.022, 1.733e-10
0.024, 1.762e-10
0.026, 1.795e-10
0.028, 1.825e-10
0.030, 1.857e-10
0.032, 1.889e-10
0.034, 1.924e-10
0.036, 1.973e-10
0.038, 2.036e-10
0.040, 2.076e-10
0.042, 2.108e-10
0.044, 2.144e-10
0.046, 2.182e-10
0.048, 2.218e-10
0.050, 2.254e-10
0.052, 2.297e-10
0.054, 2.328e-10
0.056, 2.368e-10
0.058, 2.409e-10
0.060, 2.453e-10
0.062, 2.492e-10
0.064, 2.551e-10
0.066, 2.579e-10
0.068, 2.615e-10
0.070, 2.667e-10
0.072, 2.720e-10
0.074, 2.758e-10
0.076, 2.824e-10
0.078, 2.874e-10
0.080, 2.932e-10
0.082, 2.988e-10
0.084, 3.044e-10
0.086, 3.096e-10
0.088, 3.159e-10
0.090, 3.220e-10
0.092, 3.279e-10
0.094, 3.328e-10
0.096, 3.380e-10
0.098, 3.427e-10
0.100, 3.468e-10
0.102, 3.504e-10
0.104, 3.531e-10
0.106, 3.538e-10
0.108, 3.519e-10
0.110, 3.470e-10
0.112, 3.381e-10
0.114, 3.258e-10
0.116, 3.105e-10
0.118, 2.980e-10
0.120, 2.891e-10
0.122, 2.835e-10
0.124, 2.803e-10
0.126, 2.785e-10
0.128, 2.774e-10
0.130, 2.769e-10
0.132, 2.767e-10
0.134, 2.771e-10
0.136, 2.775e-10
0.138, 2.782e-10
0.140, 2.793e-10
0.142, 2.798e-10
0.144, 2.806e-10
0.146, 2.816e-10
0.148, 2.829e-10
0.150, 2.840e-10
0.152, 2.852e-10
0.154, 2.879e-10
0.156, 2.881e-10
0.158, 2.891e-10
0.160, 2.900e-10
0.162, 2.912e-10
0.164, 2.925e-10
0.166, 2.938e-10
0.168, 2.950e-10
0.170, 2.959e-10
0.172, 2.957e-10
0.174, 2.986e-10
0.176, 2.996e-10
0.178, 3.011e-10
0.180, 3.021e-10
0.182, 3.033e-10
0.184, 3.048e-10
0.186, 3.059e-10
0.188, 3.067e-10
0.190, 3.077e-10
0.192, 3.087e-10
0.194, 3.099e-10
0.196, 3.110e-10
0.198, 3.120e-10
0.200, 3.136e-10
0.202, 3.146e-10
0.204, 3.159e-10
0.206, 3.166e-10
0.208, 3.185e-10
0.210, 3.198e-10
0.212, 3.213e-10
0.214, 3.225e-10
0.216, 3.235e-10
0.218, 3.249e-10
0.220, 3.261e-10
0.222, 3.277e-10
0.224, 3.284e-10
0.226, 3.298e-10
0.228, 3.311e-10
0.230, 3.322e-10
0.232, 3.338e-10
0.234, 3.353e-10
0.236, 3.363e-10
0.238, 3.377e-10
0.240, 3.392e-10
0.242, 3.405e-10
0.244, 3.417e-10
0.246, 3.429e-10
0.248, 3.441e-10
0.250, 3.455e-10
0.252, 3.469e-10
0.254, 3.482e-10
0.256, 3.494e-10
0.258, 3.505e-10
0.260, 3.518e-10
0.262, 3.529e-10
0.264, 3.541e-10
0.266, 3.553e-10
0.268, 3.571e-10
0.270, 3.586e-10
0.272, 3.593e-10
0.274, 3.598e-10
0.276, 3.614e-10
0.278, 3.633e-10
0.280, 3.644e-10
0.282, 3.650e-10
0.284, 3.665e-10
0.286, 3.682e-10
0.288, 3.699e-10
0.290, 3.709e-10
0.292, 3.722e-10
0.294, 3.738e-10
0.296, 3.748e-10
0.298, 3.767e-10
0.300, 3.773e-10
0.302, 3.787e-10
0.304, 3.801e-10
0.306, 3.814e-10
0.308, 3.828e-10
0.310, 3.840e-10
0.312, 3.849e-10
0.314, 3.863e-10
0.316, 3.877e-10
0.318, 3.892e-10
0.320, 3.903e-10
0.322, 3.918e-10
0.324, 3.930e-10
0.326, 3.941e-10
0.328, 3.955e-10
0.330, 3.968e-10
0.332, 3.978e-10
0.334, 3.991e-10
0.336, 4.005e-10
0.338, 4.020e-10
0.340, 4.029e-10
0.342, 4.048e-10
0.344, 4.056e-10
0.346, 4.065e-10
0.348, 4.077e-10
0.350, 4.093e-10
0.352, 4.110e-10
0.354, 4.125e-10
0.356, 4.137e-10
0.358, 4.151e-10
0.360, 4.165e-10
0.362, 4.184e-10
0.364, 4.198e-10
0.366, 4.208e-10
0.368, 4.220e-10
0.370, 4.235e-10
0.372, 4.246e-10
0.374, 4.258e-10
0.376, 4.268e-10
0.378, 4.281e-10
0.380, 4.293e-10
0.382, 4.305e-10
0.384, 4.319e-10
0.386, 4.326e-10
0.388, 4.339e-10
0.390, 4.354e-10
0.392, 4.370e-10
0.394, 4.386e-10
0.396, 4.401e-10
0.398, 4.412e-10
0.400, 4.422e-10
0.402, 4.437e-10
0.404, 4.445e-10
0.406, 4.462e-10
0.408, 4.478e-10
0.410, 4.481e-10
0.412, 4.498e-10
0.414, 4.512e-10
0.416, 4.529e-10
0.418, 4.541e-10
0.420, 4.553e-10
0.422, 4.568e-10
0.424, 4.576e-10
0.426, 4.590e-10
0.428, 4.605e-10
0.430, 4.620e-10
0.432, 4.631e-10
0.434, 4.654e-10
0.436, 4.667e-10
0.438, 4.685e-10
0.440, 4.697e-10
0.442, 4.710e-10
0.444, 4.720e-10
0.446, 4.735e-10
0.448, 4.755e-10
0.450, 4.769e-10
0.452, 4.780e-10
0.454, 4.802e-10
0.456, 4.807e-10
0.458, 4.831e-10
0.460, 4.845e-10
0.462, 4.858e-10
0.464, 4.884e-10
0.466, 4.919e-10
0.468, 4.926e-10
0.470, 4.942e-10
0.472, 4.955e-10
0.474, 4.964e-10
0.476, 4.977e-10
0.478, 4.994e-10
0.480, 5.004e-10
0.482, 5.018e-10
0.484, 5.032e-10
0.486, 5.044e-10
0.488, 5.056e-10
0.490, 5.073e-10
0.492, 5.087e-10
0.494, 5.100e-10
0.496, 5.113e-10
0.498, 5.127e-10
0.500, 5.098e-10
0.498, 4.826e-10
0.496, 4.642e-10
0.494, 4.471e-10
0.492, 4.315e-10
0.490, 4.177e-10
0.488, 4.041e-10
0.486, 3.914e-10
0.484, 3.791e-10
0.482, 3.674e-10
0.480, 3.555e-10
0.478, 3.443e-10
0.476, 3.332e-10
0.474, 3.227e-10
0.472, 3.119e-10
0.470, 3.022e-10
0.468, 2.923e-10
0.466, 2.828e-10
0.464, 2.740e-10
0.462, 2.644e-10
0.460, 2.559e-10
0.458, 2.469e-10
0.456, 2.385e-10
0.454, 2.299e-10
0.452, 2.220e-10
0.450, 2.137e-10
0.448, 2.060e-10
0.446, 1.983e-10
0.444, 1.902e-10
0.442, 1.827e-10
0.440, 1.751e-10
0.438, 1.678e-10
0.436, 1.604e-10
0.434, 1.534e-10
0.432, 1.467e-10
0.430, 1.396e-10
0.428, 1.328e-10
0.426, 1.263e-10
0.424, 1.199e-10
0.422, 1.134e-10
0.420, 1.073e-10
0.418, 1.011e-10
0.416, 9.535e-11
0.414, 8.909e-11
0.412, 8.315e-11
0.410, 7.740e-11
0.408, 7.225e-11
0.406, 6.670e-11
0.404, 6.232e-11
0.402, 5.539e-11
0.400, 4.961e-11
0.398, 4.359e-11
0.396, 3.877e-11
0.394, 3.360e-11
0.392, 2.908e-11
0.390, 2.402e-11
0.388, 1.886e-11
0.386, 1.454e-11
0.384, 9.865e-12
0.382, 5.412e-12
0.380, 7.643e-13
0.378, -4.118e-12
0.376, -8.555e-12
0.374, -1.245e-11
0.372, -1.656e-11
0.370, -2.101e-11
0.368, -2.506e-11
0.366, -2.972e-11
0.364, -3.345e-11
0.362, -3.685e-11
0.360, -4.093e-11
0.358, -4.463e-11
0.356, -4.812e-11
0.354, -5.248e-11
0.352, -5.637e-11
0.350, -5.960e-11
0.348, -6.304e-11
0.346, -6.644e-11
0.344, -6.970e-11
0.342, -7.304e-11
0.340, -7.646e-11
0.338, -7.998e-11
0.336, -8.249e-11
0.334, -8.497e-11
0.332, -8.773e-11
0.330, -9.103e-11
0.328, -9.390e-11
0.326, -9.688e-11
0.324, -1.002e-10
0.322, -1.034e-10
0.320, -1.062e-10
0.318, -1.087e-10
0.316, -1.113e-10
0.314, -1.140e-10
0.312, -1.167e-10
0.310, -1.194e-10
0.308, -1.221e-10
0.306, -1.250e-10
0.304, -1.277e-10
0.302, -1.300e-10
0.300, -1.320e-10
0.298, -1.343e-10
0.296, -1.365e-10
0.294, -1.390e-10
0.292, -1.409e-10
0.290, -1.429e-10
0.288, -1.454e-10
0.286, -1.474e-10
0.284, -1.501e-10
0.282, -1.523e-10
0.280, -1.542e-10
0.278, -1.560e-10
0.276, -1.581e-10
0.274, -1.600e-10
0.272, -1.619e-10
0.270, -1.639e-10
0.268, -1.658e-10
0.266, -1.674e-10
0.264, -1.691e-10
0.262, -1.711e-10
0.260, -1.730e-10
0.258, -1.749e-10
0.256, -1.767e-10
0.254, -1.783e-10
0.252, -1.797e-10
0.250, -1.814e-10
0.248, -1.830e-10
0.246, -1.846e-10
0.244, -1.864e-10
0.242, -1.884e-10
0.240, -1.896e-10
0.238, -1.913e-10
0.236, -1.928e-10
0.234, -1.942e-10
0.232, -1.959e-10
0.230, -1.973e-10
0.228, -1.988e-10
0.226, -2.003e-10
0.224, -2.019e-10
0.222, -2.031e-10
0.220, -2.044e-10
0.218, -2.059e-10
0.216, -2.073e-10
0.214, -2.087e-10
0.212, -2.106e-10
0.210, -2.117e-10
0.208, -2.132e-10
0.206, -2.143e-10
0.204, -2.154e-10
0.202, -2.169e-10
0.200, -2.181e-10
0.198, -2.195e-10
0.196, -2.210e-10
0.194, -2.225e-10
0.192, -2.244e-10
0.190, -2.259e-10
0.188, -2.273e-10
0.186, -2.283e-10
0.184, -2.296e-10
0.182, -2.308e-10
0.180, -2.320e-10
0.178, -2.333e-10
0.176, -2.349e-10
0.174, -2.360e-10
0.172, -2.374e-10
0.170, -2.385e-10
0.168, -2.396e-10
0.166, -2.407e-10
0.164, -2.419e-10
0.162, -2.432e-10
0.160, -2.444e-10
0.158, -2.457e-10
0.156, -2.468e-10
0.154, -2.481e-10
0.152, -2.493e-10
0.150, -2.504e-10
0.148, -2.516e-10
0.146, -2.528e-10
0.144, -2.538e-10
0.142, -2.550e-10
0.140, -2.562e-10
0.138, -2.575e-10
0.136, -2.586e-10
0.134, -2.598e-10
0.132, -2.610e-10
0.130, -2.621e-10
0.128, -2.632e-10
0.126, -2.643e-10
0.124, -2.653e-10
0.122, -2.664e-10
0.120, -2.675e-10
0.118, -2.686e-10
0.116, -2.698e-10
0.114, -2.712e-10
0.112, -2.722e-10
0.110, -2.732e-10
0.108, -2.747e-10
0.106, -2.763e-10
0.104, -2.774e-10
0.102, -2.787e-10
0.100, -2.795e-10
0.098, -2.805e-10
0.096, -2.817e-10
0.094, -2.830e-10
0.092, -2.840e-10
0.090, -2.855e-10
0.088, -2.863e-10
0.086, -2.873e-10
0.084, -2.884e-10
0.082, -2.895e-10
0.080, -2.904e-10
0.078, -2.915e-10
0.076, -2.927e-10
0.074, -2.940e-10
0.072, -2.951e-10
0.070, -2.965e-10
0.068, -2.972e-10
0.066, -2.986e-10
0.064, -2.998e-10
0.062, -3.009e-10
0.060, -3.018e-10
0.058, -3.031e-10
0.056, -3.041e-10
0.054, -3.054e-10
0.052, -3.067e-10
0.050, -3.081e-10
0.048, -3.091e-10
0.046, -3.104e-10
0.044, -3.117e-10
0.042, -3.129e-10
0.040, -3.140e-10
0.038, -3.151e-10
0.036, -3.162e-10
0.034, -3.174e-10
0.032, -3.187e-10
0.030, -3.200e-10
0.028, -3.215e-10
0.026, -3.229e-10
0.024, -3.243e-10
0.022, -3.251e-10
0.020, -3.264e-10
0.018, -3.280e-10
0.016, -3.291e-10
0.014, -3.303e-10
0.012, -3.316e-10
0.010, -3.331e-10
0.008, -3.346e-10
0.006, -3.360e-10
0.004, -3.371e-10
0.002, -3.384e-10
-0.000, -3.407e-10
-0.002, -3.423e-10
-0.004, -3.434e-10
-0.006, -3.447e-10
-0.008, -3.463e-10
-0.010, -3.477e-10
-0.012, -3.489e-10
-0.014, -3.499e-10
-0.016, -3.514e-10
-0.018, -3.534e-10
-0.020, -3.555e-10
-0.022, -3.570e-10
-0.024, -3.584e-10
-0.026, -3.599e-10
-0.028, -3.605e-10
-0.030, -3.623e-10
-0.032, -3.639e-10
-0.034, -3.653e-10
-0.036, -3.659e-10
-0.038, -3.675e-10
-0.040, -3.693e-10
-0.042, -3.703e-10
-0.044, -3.720e-10
-0.046, -3.731e-10
-0.048, -3.742e-10
-0.050, -3.752e-10
-0.052, -3.764e-10
-0.054, -3.775e-10
-0.056, -3.789e-10
-0.058, -3.800e-10
-0.060, -3.818e-10
-0.062, -3.828e-10
-0.064, -3.843e-10
-0.066, -3.859e-10
-0.068, -3.875e-10
-0.070, -3.899e-10
-0.072, -3.916e-10
-0.074, -3.931e-10
-0.076, -3.937e-10
-0.078, -3.952e-10
-0.080, -3.962e-10
-0.082, -3.974e-10
-0.084, -3.985e-10
-0.086, -3.999e-10
-0.088, -4.013e-10
-0.090, -4.024e-10
-0.092, -4.037e-10
-0.094, -4.050e-10
-0.096, -4.062e-10
-0.098, -4.076e-10
-0.100, -4.087e-10
-0.102, -4.101e-10
-0.104, -4.183e-10
-0.106, -4.226e-10
-0.108, -4.244e-10
-0.110, -4.251e-10
-0.112, -4.265e-10
-0.114, -4.277e-10
-0.116, -4.288e-10
-0.118, -4.300e-10
-0.120, -4.314e-10
-0.122, -4.327e-10
-0.124, -4.339e-10
-0.126, -4.353e-10
-0.128, -4.364e-10
-0.130, -4.379e-10
-0.132, -4.390e-10
-0.134, -4.405e-10
-0.136, -4.416e-10
-0.138, -4.429e-10
-0.140, -4.447e-10
-0.142, -4.456e-10
-0.144, -4.469e-10
-0.146, -4.483e-10
-0.148, -4.507e-10
-0.150, -4.529e-10
-0.152, -4.543e-10
-0.154, -4.553e-10
-0.156, -4.567e-10
-0.158, -4.586e-10
-0.160, -4.592e-10
-0.162, -4.616e-10
-0.164, -4.629e-10
-0.166, -4.653e-10
-0.168, -4.663e-10
-0.170, -4.680e-10
-0.172, -4.693e-10
-0.174, -4.709e-10
-0.176, -4.724e-10
-0.178, -4.737e-10
-0.180, -4.750e-10
-0.182, -4.765e-10
-0.184, -4.784e-10
-0.186, -4.799e-10
-0.188, -4.813e-10
-0.190, -4.831e-10
-0.192, -4.845e-10
-0.194, -4.860e-10
-0.196, -4.878e-10
-0.198, -4.896e-10
-0.200, -4.911e-10
-0.202, -4.929e-10
-0.204, -4.949e-10
-0.206, -4.966e-10
-0.208, -4.983e-10
-0.210, -4.998e-10
-0.212, -5.013e-10
-0.214, -5.031e-10
-0.216, -5.047e-10
-0.218, -5.066e-10
-0.220, -5.087e-10
-0.222, -5.104e-10
-0.224, -5.123e-10
-0.226, -5.139e-10
-0.228, -5.165e-10
-0.230, -5.183e-10
-0.232, -5.203e-10
-0.234, -5.219e-10
-0.236, -5.236e-10
-0.238, -5.252e-10
-0.240, -5.272e-10
-0.242, -5.293e-10
-0.244, -5.312e-10
-0.246, -5.332e-10
-0.248, -5.345e-10
-0.250, -5.359e-10
-0.252, -5.383e-10
-0.254, -5.415e-10
-0.256, -5.446e-10
-0.258, -5.473e-10
-0.260, -5.491e-10
-0.262, -5.515e-10
-0.264, -5.535e-10
-0.266, -5.566e-10
-0.268, -5.587e-10
-0.270, -5.612e-10
-0.272, -5.635e-10
-0.274, -5.656e-10
-0.276, -5.685e-10
-0.278, -5.706e-10
-0.280, -5.724e-10
-0.282, -5.746e-10
-0.284, -5.771e-10
-0.286, -5.791e-10
-0.288, -5.815e-10
-0.290, -5.837e-10
-0.292, -5.858e-10
-0.294, -5.883e-10
-0.296, -5.912e-10
-0.298, -5.934e-10
-0.300, -5.952e-10
-0.302, -5.973e-10
-0.304, -5.995e-10
-0.306, -6.018e-10
-0.308, -6.043e-10
-0.310, -6.061e-10
-0.312, -6.086e-10
-0.314, -6.112e-10
-0.316, -6.131e-10
-0.318, -6.159e-10
-0.320, -6.191e-10
-0.322, -6.218e-10
-0.324, -6.238e-10
-0.326, -6.263e-10
-0.328, -6.285e-10
-0.330, -6.308e-10
-0.332, -6.332e-10
-0.334, -6.358e-10
-0.336, -6.377e-10
-0.338, -6.407e-10
-0.340, -6.433e-10
-0.342, -6.455e-10
-0.344, -6.479e-10
-0.346, -6.506e-10
-0.348, -6.528e-10
-0.350, -6.555e-10
-0.352, -6.571e-10
-0.354, -6.601e-10
-0.356, -6.625e-10
-0.358, -6.649e-10
-0.360, -6.675e-10
-0.362, -6.693e-10
-0.364, -6.714e-10
-0.366, -6.740e-10
-0.368, -6.764e-10
-0.370, -6.786e-10
-0.372, -6.811e-10
-0.374, -6.832e-10
-0.376, -6.858e-10
-0.378, -6.916e-10
-0.380, -6.949e-10
-0.382, -6.977e-10
-0.384, -7.005e-10
-0.386, -7.029e-10
-0.388, -7.055e-10
-0.390, -7.081e-10
-0.392, -7.106e-10
-0.394, -7.134e-10
-0.396, -7.173e-10
-0.398, -7.297e-10
-0.400, -7.335e-10
-0.402, -7.362e-10
-0.404, -7.391e-10
-0.406, -7.416e-10
-0.408, -7.448e-10
-0.410, -7.480e-10
-0.412, -7.504e-10
-0.414, -7.533e-10
-0.416, -7.564e-10
-0.418, -7.594e-10
-0.420, -7.640e-10
-0.422, -7.749e-10
-0.424, -7.772e-10
-0.426, -7.798e-10
-0.428, -7.834e-10
-0.430, -7.865e-10
-0.432, -7.888e-10
-0.434, -7.904e-10
-0.436, -7.925e-10
-0.438, -7.958e-10
-0.440, -7.992e-10
-0.442, -8.021e-10
-0.444, -8.040e-10
-0.446, -8.068e-10
-0.448, -8.087e-10
-0.450, -8.119e-10
-0.452, -8.141e-10
-0.454, -8.167e-10
-0.456, -8.191e-10
-0.458, -8.221e-10
-0.460, -8.247e-10
-0.462, -8.268e-10
-0.464, -8.300e-10
-0.466, -8.328e-10
-0.468, -8.366e-10
-0.470, -8.394e-10
-0.472, -8.416e-10
-0.474, -8.437e-10
-0.476, -8.456e-10
-0.478, -8.469e-10
-0.480, -8.498e-10
-0.482, -8.511e-10
-0.484, -8.545e-10
-0.486, -8.566e-10
-0.488, -8.593e-10
-0.490, -8.603e-10
-0.492, -8.611e-10
-0.494, -8.626e-10
-0.496, -8.627e-10
-0.498, -8.618e-10
-0.499, -8.612e-10