File: Supplementary Fig 4/Fig S4d Bulk CVs post incubation/CV_light_incubation_B.txt
Nov. 18, 2024   15:03:26
Cyclic Voltammetry
File: +12 2319-1 fto cv_cells_light_bulk.bin
Data Source:  Experiment
Instrument Model:  CHI920C
Ref. Electrode:
Header:
Note:

Init E (V) = -0.5
High E (V) = 0.5
Low E (V) = -0.5
Init P/N = P
Scan Rate (V/s) = 0.05
Segment = 2
Sample Interval (V) = 0.001
Quiet Time (sec) = 10
Sensitivity (A/V) = 1e-7

Results:

Channel 1:
Segment 1:
Ep = 0.112V
ip = 5.191e-10A
Ah = 3.717e-10C

Segment 2:

Potential/V, Current/A

-0.500, -7.537e-10
-0.498, -7.284e-10
-0.496, -7.130e-10
-0.494, -7.002e-10
-0.492, -6.868e-10
-0.490, -6.746e-10
-0.488, -6.627e-10
-0.486, -6.519e-10
-0.484, -6.404e-10
-0.482, -6.292e-10
-0.480, -6.174e-10
-0.478, -6.080e-10
-0.476, -5.974e-10
-0.474, -5.872e-10
-0.472, -5.772e-10
-0.470, -5.681e-10
-0.468, -5.589e-10
-0.466, -5.484e-10
-0.464, -5.373e-10
-0.462, -5.267e-10
-0.460, -5.155e-10
-0.458, -5.051e-10
-0.456, -4.934e-10
-0.454, -4.842e-10
-0.452, -4.739e-10
-0.450, -4.650e-10
-0.448, -4.574e-10
-0.446, -4.488e-10
-0.444, -4.389e-10
-0.442, -4.293e-10
-0.440, -4.214e-10
-0.438, -4.123e-10
-0.436, -4.053e-10
-0.434, -3.977e-10
-0.432, -3.886e-10
-0.430, -3.805e-10
-0.428, -3.719e-10
-0.426, -3.636e-10
-0.424, -3.577e-10
-0.422, -3.496e-10
-0.420, -3.426e-10
-0.418, -3.362e-10
-0.416, -3.304e-10
-0.414, -3.228e-10
-0.412, -3.178e-10
-0.410, -3.105e-10
-0.408, -3.041e-10
-0.406, -2.978e-10
-0.404, -2.897e-10
-0.402, -2.811e-10
-0.400, -2.735e-10
-0.398, -2.664e-10
-0.396, -2.586e-10
-0.394, -2.519e-10
-0.392, -2.450e-10
-0.390, -2.395e-10
-0.388, -2.336e-10
-0.386, -2.283e-10
-0.384, -2.226e-10
-0.382, -2.172e-10
-0.380, -2.102e-10
-0.378, -2.055e-10
-0.376, -2.000e-10
-0.374, -1.946e-10
-0.372, -1.895e-10
-0.370, -1.844e-10
-0.368, -1.802e-10
-0.366, -1.754e-10
-0.364, -1.707e-10
-0.362, -1.664e-10
-0.360, -1.622e-10
-0.358, -1.568e-10
-0.356, -1.518e-10
-0.354, -1.463e-10
-0.352, -1.419e-10
-0.350, -1.371e-10
-0.348, -1.337e-10
-0.346, -1.281e-10
-0.344, -1.245e-10
-0.342, -1.206e-10
-0.340, -1.172e-10
-0.338, -1.128e-10
-0.336, -1.084e-10
-0.334, -1.055e-10
-0.332, -1.023e-10
-0.330, -9.851e-11
-0.328, -9.569e-11
-0.326, -9.169e-11
-0.324, -8.828e-11
-0.322, -8.409e-11
-0.320, -8.214e-11
-0.318, -7.892e-11
-0.316, -7.619e-11
-0.314, -7.142e-11
-0.312, -6.810e-11
-0.310, -6.537e-11
-0.308, -6.245e-11
-0.306, -5.767e-11
-0.304, -5.543e-11
-0.302, -5.143e-11
-0.300, -4.841e-11
-0.298, -4.412e-11
-0.296, -4.149e-11
-0.294, -3.876e-11
-0.292, -3.447e-11
-0.290, -3.232e-11
-0.288, -2.804e-11
-0.286, -2.394e-11
-0.284, -2.316e-11
-0.282, -1.926e-11
-0.280, -1.566e-11
-0.278, -1.263e-11
-0.276, -9.807e-12
-0.274, -8.442e-12
-0.272, -5.615e-12
-0.270, -2.593e-12
-0.268, 9.163e-13
-0.266, 3.451e-12
-0.264, 5.790e-12
-0.262, 8.130e-12
-0.260, 1.008e-11
-0.258, 1.320e-11
-0.256, 1.534e-11
-0.254, 1.788e-11
-0.252, 2.041e-11
-0.250, 2.246e-11
-0.248, 2.538e-11
-0.246, 2.577e-11
-0.244, 2.811e-11
-0.242, 3.094e-11
-0.240, 3.367e-11
-0.238, 3.640e-11
-0.236, 3.806e-11
-0.234, 3.991e-11
-0.232, 4.157e-11
-0.230, 4.371e-11
-0.228, 4.498e-11
-0.226, 4.771e-11
-0.224, 4.810e-11
-0.222, 5.014e-11
-0.220, 5.239e-11
-0.218, 5.453e-11
-0.216, 5.590e-11
-0.214, 5.833e-11
-0.212, 6.067e-11
-0.210, 6.321e-11
-0.208, 6.321e-11
-0.206, 6.574e-11
-0.204, 6.662e-11
-0.202, 6.837e-11
-0.200, 7.062e-11
-0.198, 7.237e-11
-0.196, 7.374e-11
-0.194, 7.481e-11
-0.192, 7.685e-11
-0.190, 7.793e-11
-0.188, 8.173e-11
-0.186, 8.280e-11
-0.184, 8.329e-11
-0.182, 8.543e-11
-0.180, 8.699e-11
-0.178, 8.826e-11
-0.176, 9.011e-11
-0.174, 9.109e-11
-0.172, 9.109e-11
-0.170, 9.245e-11
-0.168, 9.421e-11
-0.166, 9.606e-11
-0.164, 9.840e-11
-0.162, 9.996e-11
-0.160, 1.004e-10
-0.158, 1.015e-10
-0.156, 1.028e-10
-0.154, 1.038e-10
-0.152, 1.056e-10
-0.150, 1.069e-10
-0.148, 1.073e-10
-0.146, 1.079e-10
-0.144, 1.096e-10
-0.142, 1.105e-10
-0.140, 1.124e-10
-0.138, 1.139e-10
-0.136, 1.139e-10
-0.134, 1.146e-10
-0.132, 1.166e-10
-0.130, 1.174e-10
-0.128, 1.176e-10
-0.126, 1.190e-10
-0.124, 1.188e-10
-0.122, 1.186e-10
-0.120, 1.215e-10
-0.118, 1.211e-10
-0.116, 1.226e-10
-0.114, 1.227e-10
-0.112, 1.240e-10
-0.110, 1.235e-10
-0.108, 1.247e-10
-0.106, 1.267e-10
-0.104, 1.254e-10
-0.102, 1.274e-10
-0.100, 1.279e-10
-0.098, 1.285e-10
-0.096, 1.288e-10
-0.094, 1.297e-10
-0.092, 1.302e-10
-0.090, 1.309e-10
-0.088, 1.323e-10
-0.086, 1.324e-10
-0.084, 1.326e-10
-0.082, 1.322e-10
-0.080, 1.336e-10
-0.078, 1.339e-10
-0.076, 1.348e-10
-0.074, 1.356e-10
-0.072, 1.363e-10
-0.070, 1.373e-10
-0.068, 1.385e-10
-0.066, 1.394e-10
-0.064, 1.386e-10
-0.062, 1.394e-10
-0.060, 1.408e-10
-0.058, 1.408e-10
-0.056, 1.426e-10
-0.054, 1.426e-10
-0.052, 1.441e-10
-0.050, 1.462e-10
-0.048, 1.467e-10
-0.046, 1.474e-10
-0.044, 1.483e-10
-0.042, 1.489e-10
-0.040, 1.486e-10
-0.038, 1.487e-10
-0.036, 1.495e-10
-0.034, 1.507e-10
-0.032, 1.522e-10
-0.030, 1.529e-10
-0.028, 1.543e-10
-0.026, 1.554e-10
-0.024, 1.554e-10
-0.022, 1.563e-10
-0.020, 1.575e-10
-0.018, 1.601e-10
-0.016, 1.604e-10
-0.014, 1.619e-10
-0.012, 1.640e-10
-0.010, 1.634e-10
-0.008, 1.647e-10
-0.006, 1.671e-10
-0.004, 1.678e-10
-0.002, 1.694e-10
0.000, 1.708e-10
0.002, 1.745e-10
0.004, 1.749e-10
0.006, 1.774e-10
0.008, 1.797e-10
0.010, 1.829e-10
0.012, 1.866e-10
0.014, 1.908e-10
0.016, 1.935e-10
0.018, 1.972e-10
0.020, 2.006e-10
0.022, 2.057e-10
0.024, 2.085e-10
0.026, 2.127e-10
0.028, 2.182e-10
0.030, 2.211e-10
0.032, 2.259e-10
0.034, 2.313e-10
0.036, 2.358e-10
0.038, 2.413e-10
0.040, 2.464e-10
0.042, 2.513e-10
0.044, 2.555e-10
0.046, 2.615e-10
0.048, 2.676e-10
0.050, 2.731e-10
0.052, 2.797e-10
0.054, 2.862e-10
0.056, 2.935e-10
0.058, 2.999e-10
0.060, 3.069e-10
0.062, 3.145e-10
0.064, 3.202e-10
0.066, 3.279e-10
0.068, 3.364e-10
0.070, 3.445e-10
0.072, 3.521e-10
0.074, 3.595e-10
0.076, 3.668e-10
0.078, 3.767e-10
0.080, 3.862e-10
0.082, 3.950e-10
0.084, 4.052e-10
0.086, 4.173e-10
0.088, 4.285e-10
0.090, 4.451e-10
0.092, 4.657e-10
0.094, 4.939e-10
0.096, 5.233e-10
0.098, 5.519e-10
0.100, 5.810e-10
0.102, 6.126e-10
0.104, 6.406e-10
0.106, 6.629e-10
0.108, 6.845e-10
0.110, 7.022e-10
0.112, 7.113e-10
0.114, 7.095e-10
0.116, 6.971e-10
0.118, 6.759e-10
0.120, 6.507e-10
0.122, 6.218e-10
0.124, 5.972e-10
0.126, 5.705e-10
0.128, 5.487e-10
0.130, 5.275e-10
0.132, 5.131e-10
0.134, 4.985e-10
0.136, 4.860e-10
0.138, 4.735e-10
0.140, 4.636e-10
0.142, 4.570e-10
0.144, 4.530e-10
0.146, 4.478e-10
0.148, 4.445e-10
0.150, 4.392e-10
0.152, 4.367e-10
0.154, 4.341e-10
0.156, 4.331e-10
0.158, 4.332e-10
0.160, 4.318e-10
0.162, 4.305e-10
0.164, 4.251e-10
0.166, 4.260e-10
0.168, 4.250e-10
0.170, 4.249e-10
0.172, 4.236e-10
0.174, 4.192e-10
0.176, 4.178e-10
0.178, 4.186e-10
0.180, 4.134e-10
0.182, 4.095e-10
0.184, 4.049e-10
0.186, 4.046e-10
0.188, 3.993e-10
0.190, 3.957e-10
0.192, 3.909e-10
0.194, 3.900e-10
0.196, 3.853e-10
0.198, 3.840e-10
0.200, 3.802e-10
0.202, 3.758e-10
0.204, 3.733e-10
0.206, 3.700e-10
0.208, 3.682e-10
0.210, 3.631e-10
0.212, 3.616e-10
0.214, 3.578e-10
0.216, 3.545e-10
0.218, 3.521e-10
0.220, 3.505e-10
0.222, 3.472e-10
0.224, 3.468e-10
0.226, 3.436e-10
0.228, 3.410e-10
0.230, 3.418e-10
0.232, 3.415e-10
0.234, 3.394e-10
0.236, 3.386e-10
0.238, 3.373e-10
0.240, 3.346e-10
0.242, 3.339e-10
0.244, 3.335e-10
0.246, 3.340e-10
0.248, 3.320e-10
0.250, 3.294e-10
0.252, 3.303e-10
0.254, 3.291e-10
0.256, 3.286e-10
0.258, 3.278e-10
0.260, 3.287e-10
0.262, 3.273e-10
0.264, 3.279e-10
0.266, 3.275e-10
0.268, 3.244e-10
0.270, 3.258e-10
0.272, 3.266e-10
0.274, 3.262e-10
0.276, 3.257e-10
0.278, 3.252e-10
0.280, 3.265e-10
0.282, 3.260e-10
0.284, 3.265e-10
0.286, 3.256e-10
0.288, 3.247e-10
0.290, 3.246e-10
0.292, 3.250e-10
0.294, 3.261e-10
0.296, 3.268e-10
0.298, 3.260e-10
0.300, 3.286e-10
0.302, 3.306e-10
0.304, 3.305e-10
0.306, 3.291e-10
0.308, 3.307e-10
0.310, 3.313e-10
0.312, 3.280e-10
0.314, 3.322e-10
0.316, 3.392e-10
0.318, 3.443e-10
0.320, 3.403e-10
0.322, 3.299e-10
0.324, 3.361e-10
0.326, 3.343e-10
0.328, 3.318e-10
0.330, 3.318e-10
0.332, 3.307e-10
0.334, 3.289e-10
0.336, 3.320e-10
0.338, 3.312e-10
0.340, 3.340e-10
0.342, 3.325e-10
0.344, 3.336e-10
0.346, 3.346e-10
0.348, 3.346e-10
0.350, 3.364e-10
0.352, 3.338e-10
0.354, 3.366e-10
0.356, 3.370e-10
0.358, 3.381e-10
0.360, 3.385e-10
0.362, 3.383e-10
0.364, 3.401e-10
0.366, 3.422e-10
0.368, 3.408e-10
0.370, 3.412e-10
0.372, 3.417e-10
0.374, 3.434e-10
0.376, 3.434e-10
0.378, 3.443e-10
0.380, 3.441e-10
0.382, 3.433e-10
0.384, 3.447e-10
0.386, 3.451e-10
0.388, 3.454e-10
0.390, 3.461e-10
0.392, 3.476e-10
0.394, 3.488e-10
0.396, 3.503e-10
0.398, 3.500e-10
0.400, 3.506e-10
0.402, 3.523e-10
0.404, 3.531e-10
0.406, 3.551e-10
0.408, 3.540e-10
0.410, 3.538e-10
0.412, 3.532e-10
0.414, 3.545e-10
0.416, 3.557e-10
0.418, 3.568e-10
0.420, 3.568e-10
0.422, 3.565e-10
0.424, 3.585e-10
0.426, 3.596e-10
0.428, 3.597e-10
0.430, 3.595e-10
0.432, 3.608e-10
0.434, 3.610e-10
0.436, 3.619e-10
0.438, 3.609e-10
0.440, 3.613e-10
0.442, 3.624e-10
0.444, 3.626e-10
0.446, 3.636e-10
0.448, 3.651e-10
0.450, 3.656e-10
0.452, 3.656e-10
0.454, 3.659e-10
0.456, 3.646e-10
0.458, 3.659e-10
0.460, 3.660e-10
0.462, 3.680e-10
0.464, 3.685e-10
0.466, 3.695e-10
0.468, 3.689e-10
0.470, 3.711e-10
0.472, 3.710e-10
0.474, 3.713e-10
0.476, 3.723e-10
0.478, 3.736e-10
0.480, 3.759e-10
0.482, 3.769e-10
0.484, 3.760e-10
0.486, 3.774e-10
0.488, 3.775e-10
0.490, 3.781e-10
0.492, 3.786e-10
0.494, 3.802e-10
0.496, 3.805e-10
0.498, 3.816e-10
0.500, 3.778e-10
0.498, 3.488e-10
0.496, 3.334e-10
0.494, 3.226e-10
0.492, 3.145e-10
0.490, 3.047e-10
0.488, 2.974e-10
0.486, 2.915e-10
0.484, 2.861e-10
0.482, 2.799e-10
0.480, 2.732e-10
0.478, 2.682e-10
0.476, 2.618e-10
0.474, 2.574e-10
0.472, 2.545e-10
0.470, 2.500e-10
0.468, 2.458e-10
0.466, 2.424e-10
0.464, 2.386e-10
0.462, 2.341e-10
0.460, 2.297e-10
0.458, 2.250e-10
0.456, 2.236e-10
0.454, 2.201e-10
0.452, 2.164e-10
0.450, 2.127e-10
0.448, 2.095e-10
0.446, 2.059e-10
0.444, 2.036e-10
0.442, 1.995e-10
0.440, 1.973e-10
0.438, 1.954e-10
0.436, 1.923e-10
0.434, 1.902e-10
0.432, 1.873e-10
0.430, 1.848e-10
0.428, 1.821e-10
0.426, 1.795e-10
0.424, 1.762e-10
0.422, 1.730e-10
0.420, 1.699e-10
0.418, 1.687e-10
0.416, 1.669e-10
0.414, 1.652e-10
0.412, 1.636e-10
0.410, 1.608e-10
0.408, 1.588e-10
0.406, 1.557e-10
0.404, 1.535e-10
0.402, 1.517e-10
0.400, 1.492e-10
0.398, 1.462e-10
0.396, 1.445e-10
0.394, 1.420e-10
0.392, 1.399e-10
0.390, 1.378e-10
0.388, 1.373e-10
0.386, 1.345e-10
0.384, 1.333e-10
0.382, 1.314e-10
0.380, 1.293e-10
0.378, 1.262e-10
0.376, 1.246e-10
0.374, 1.235e-10
0.372, 1.217e-10
0.370, 1.199e-10
0.368, 1.158e-10
0.366, 1.147e-10
0.364, 1.119e-10
0.362, 1.104e-10
0.360, 1.093e-10
0.358, 1.064e-10
0.356, 1.051e-10
0.354, 1.041e-10
0.352, 1.009e-10
0.350, 9.928e-11
0.348, 9.596e-11
0.346, 9.362e-11
0.344, 9.284e-11
0.342, 9.099e-11
0.340, 8.894e-11
0.338, 8.680e-11
0.336, 8.504e-11
0.334, 8.222e-11
0.332, 7.988e-11
0.330, 7.822e-11
0.328, 7.734e-11
0.326, 7.471e-11
0.324, 7.110e-11
0.322, 6.915e-11
0.320, 6.837e-11
0.318, 6.642e-11
0.316, 6.438e-11
0.314, 6.233e-11
0.312, 6.077e-11
0.310, 5.882e-11
0.308, 5.794e-11
0.306, 5.590e-11
0.304, 5.521e-11
0.302, 5.307e-11
0.300, 5.063e-11
0.298, 4.878e-11
0.296, 4.781e-11
0.294, 4.644e-11
0.292, 4.498e-11
0.290, 4.254e-11
0.288, 4.030e-11
0.286, 3.835e-11
0.284, 3.718e-11
0.282, 3.533e-11
0.280, 3.416e-11
0.278, 3.231e-11
0.276, 3.114e-11
0.274, 2.977e-11
0.272, 2.704e-11
0.270, 2.548e-11
0.268, 2.519e-11
0.266, 2.197e-11
0.264, 2.187e-11
0.262, 1.963e-11
0.260, 1.700e-11
0.258, 1.612e-11
0.256, 1.544e-11
0.254, 1.310e-11
0.252, 1.164e-11
0.250, 9.105e-12
0.248, 8.520e-12
0.246, 5.790e-12
0.244, 4.621e-12
0.242, 3.743e-12
0.240, 1.111e-12
0.238, -2.534e-13
0.236, -7.408e-13
0.234, -2.593e-12
0.232, -3.958e-12
0.230, -4.933e-12
0.228, -6.297e-12
0.226, -8.637e-12
0.224, -1.127e-11
0.222, -1.185e-11
0.220, -1.351e-11
0.218, -1.458e-11
0.216, -1.575e-11
0.214, -1.731e-11
0.212, -1.887e-11
0.210, -2.092e-11
0.208, -2.258e-11
0.206, -2.492e-11
0.204, -2.609e-11
0.202, -2.726e-11
0.200, -2.833e-11
0.198, -2.960e-11
0.196, -3.047e-11
0.194, -3.291e-11
0.192, -3.418e-11
0.190, -3.603e-11
0.188, -3.642e-11
0.186, -3.759e-11
0.184, -3.973e-11
0.182, -4.178e-11
0.180, -4.227e-11
0.178, -4.363e-11
0.176, -4.373e-11
0.174, -4.675e-11
0.172, -4.704e-11
0.170, -4.812e-11
0.168, -4.987e-11
0.166, -5.172e-11
0.164, -5.367e-11
0.162, -5.484e-11
0.160, -5.465e-11
0.158, -5.660e-11
0.156, -5.660e-11
0.154, -5.952e-11
0.152, -6.030e-11
0.150, -6.108e-11
0.148, -6.274e-11
0.146, -6.410e-11
0.144, -6.508e-11
0.142, -6.693e-11
0.140, -6.722e-11
0.138, -6.937e-11
0.136, -6.986e-11
0.134, -7.083e-11
0.132, -7.268e-11
0.130, -7.405e-11
0.128, -7.453e-11
0.126, -7.551e-11
0.124, -7.736e-11
0.122, -7.902e-11
0.120, -7.960e-11
0.118, -8.068e-11
0.116, -8.194e-11
0.114, -8.311e-11
0.112, -8.516e-11
0.110, -8.516e-11
0.108, -8.740e-11
0.106, -8.896e-11
0.104, -9.062e-11
0.102, -9.208e-11
0.100, -9.296e-11
0.098, -9.432e-11
0.096, -9.549e-11
0.094, -9.647e-11
0.092, -9.764e-11
0.090, -9.890e-11
0.088, -1.006e-10
0.086, -1.029e-10
0.084, -1.035e-10
0.082, -1.043e-10
0.080, -1.066e-10
0.078, -1.074e-10
0.076, -1.096e-10
0.074, -1.120e-10
0.072, -1.124e-10
0.070, -1.139e-10
0.068, -1.156e-10
0.066, -1.174e-10
0.064, -1.190e-10
0.062, -1.209e-10
0.060, -1.229e-10
0.058, -1.250e-10
0.056, -1.260e-10
0.054, -1.277e-10
0.052, -1.287e-10
0.050, -1.314e-10
0.048, -1.333e-10
0.046, -1.351e-10
0.044, -1.357e-10
0.042, -1.383e-10
0.040, -1.394e-10
0.038, -1.413e-10
0.036, -1.436e-10
0.034, -1.448e-10
0.032, -1.479e-10
0.030, -1.493e-10
0.028, -1.525e-10
0.026, -1.545e-10
0.024, -1.568e-10
0.022, -1.591e-10
0.020, -1.612e-10
0.018, -1.626e-10
0.016, -1.638e-10
0.014, -1.650e-10
0.012, -1.672e-10
0.010, -1.687e-10
0.008, -1.714e-10
0.006, -1.738e-10
0.004, -1.750e-10
0.002, -1.767e-10
-0.000, -1.792e-10
-0.002, -1.813e-10
-0.004, -1.825e-10
-0.006, -1.843e-10
-0.008, -1.865e-10
-0.010, -1.881e-10
-0.012, -1.901e-10
-0.014, -1.918e-10
-0.016, -1.931e-10
-0.018, -1.948e-10
-0.020, -1.965e-10
-0.022, -1.986e-10
-0.024, -2.001e-10
-0.026, -2.022e-10
-0.028, -2.039e-10
-0.030, -2.048e-10
-0.032, -2.049e-10
-0.034, -2.075e-10
-0.036, -2.094e-10
-0.038, -2.109e-10
-0.040, -2.127e-10
-0.042, -2.129e-10
-0.044, -2.162e-10
-0.046, -2.181e-10
-0.048, -2.198e-10
-0.050, -2.220e-10
-0.052, -2.228e-10
-0.054, -2.260e-10
-0.056, -2.346e-10
-0.058, -2.402e-10
-0.060, -2.493e-10
-0.062, -2.429e-10
-0.064, -2.431e-10
-0.066, -2.440e-10
-0.068, -2.600e-10
-0.070, -2.520e-10
-0.072, -2.628e-10
-0.074, -2.621e-10
-0.076, -2.577e-10
-0.078, -2.851e-10
-0.080, -2.406e-10
-0.082, -2.511e-10
-0.084, -2.503e-10
-0.086, -2.464e-10
-0.088, -2.405e-10
-0.090, -2.471e-10
-0.092, -2.393e-10
-0.094, -2.384e-10
-0.096, -2.395e-10
-0.098, -2.413e-10
-0.100, -2.427e-10
-0.102, -2.442e-10
-0.104, -2.584e-10
-0.106, -2.608e-10
-0.108, -2.519e-10
-0.110, -2.489e-10
-0.112, -2.496e-10
-0.114, -2.503e-10
-0.116, -2.502e-10
-0.118, -2.520e-10
-0.120, -2.631e-10
-0.122, -2.570e-10
-0.124, -2.579e-10
-0.126, -2.590e-10
-0.128, -2.571e-10
-0.130, -2.591e-10
-0.132, -2.769e-10
-0.134, -2.649e-10
-0.136, -2.890e-10
-0.138, -2.656e-10
-0.140, -2.670e-10
-0.142, -2.699e-10
-0.144, -2.715e-10
-0.146, -2.741e-10
-0.148, -2.720e-10
-0.150, -2.821e-10
-0.152, -2.733e-10
-0.154, -2.734e-10
-0.156, -2.760e-10
-0.158, -2.780e-10
-0.160, -2.784e-10
-0.162, -2.877e-10
-0.164, -2.856e-10
-0.166, -2.882e-10
-0.168, -2.889e-10
-0.170, -2.863e-10
-0.172, -2.868e-10
-0.174, -2.877e-10
-0.176, -2.906e-10
-0.178, -2.916e-10
-0.180, -2.927e-10
-0.182, -2.941e-10
-0.184, -2.954e-10
-0.186, -2.959e-10
-0.188, -2.979e-10
-0.190, -3.044e-10
-0.192, -3.024e-10
-0.194, -3.059e-10
-0.196, -3.069e-10
-0.198, -3.076e-10
-0.200, -3.063e-10
-0.202, -3.083e-10
-0.204, -3.089e-10
-0.206, -3.104e-10
-0.208, -3.128e-10
-0.210, -3.181e-10
-0.212, -3.147e-10
-0.214, -3.155e-10
-0.216, -3.157e-10
-0.218, -3.181e-10
-0.220, -3.271e-10
-0.222, -3.226e-10
-0.224, -3.221e-10
-0.226, -3.242e-10
-0.228, -3.255e-10
-0.230, -3.261e-10
-0.232, -3.261e-10
-0.234, -3.323e-10
-0.236, -3.300e-10
-0.238, -3.306e-10
-0.240, -3.311e-10
-0.242, -3.333e-10
-0.244, -3.344e-10
-0.246, -3.370e-10
-0.248, -3.397e-10
-0.250, -3.405e-10
-0.252, -3.431e-10
-0.254, -3.430e-10
-0.256, -3.439e-10
-0.258, -3.456e-10
-0.260, -3.480e-10
-0.262, -3.499e-10
-0.264, -3.544e-10
-0.266, -3.529e-10
-0.268, -3.544e-10
-0.270, -3.547e-10
-0.272, -3.567e-10
-0.274, -3.588e-10
-0.276, -3.614e-10
-0.278, -3.613e-10
-0.280, -3.647e-10
-0.282, -3.656e-10
-0.284, -3.697e-10
-0.286, -3.702e-10
-0.288, -3.723e-10
-0.290, -3.735e-10
-0.292, -3.781e-10
-0.294, -3.776e-10
-0.296, -3.779e-10
-0.298, -3.789e-10
-0.300, -3.821e-10
-0.302, -3.851e-10
-0.304, -3.858e-10
-0.306, -3.889e-10
-0.308, -3.908e-10
-0.310, -3.927e-10
-0.312, -3.982e-10
-0.314, -3.963e-10
-0.316, -3.998e-10
-0.318, -4.015e-10
-0.320, -4.029e-10
-0.322, -4.060e-10
-0.324, -4.100e-10
-0.326, -4.105e-10
-0.328, -4.137e-10
-0.330, -4.153e-10
-0.332, -4.180e-10
-0.334, -4.201e-10
-0.336, -4.247e-10
-0.338, -4.251e-10
-0.340, -4.270e-10
-0.342, -4.295e-10
-0.344, -4.314e-10
-0.346, -4.343e-10
-0.348, -4.373e-10
-0.350, -4.394e-10
-0.352, -4.423e-10
-0.354, -4.460e-10
-0.356, -4.486e-10
-0.358, -4.510e-10
-0.360, -4.539e-10
-0.362, -4.563e-10
-0.364, -4.599e-10
-0.366, -4.626e-10
-0.368, -4.654e-10
-0.370, -4.680e-10
-0.372, -4.722e-10
-0.374, -4.758e-10
-0.376, -4.801e-10
-0.378, -4.815e-10
-0.380, -4.859e-10
-0.382, -4.895e-10
-0.384, -4.947e-10
-0.386, -4.977e-10
-0.388, -5.018e-10
-0.390, -5.054e-10
-0.392, -5.113e-10
-0.394, -5.155e-10
-0.396, -5.206e-10
-0.398, -5.243e-10
-0.400, -5.291e-10
-0.402, -5.329e-10
-0.404, -5.380e-10
-0.406, -5.441e-10
-0.408, -5.481e-10
-0.410, -5.536e-10
-0.412, -5.586e-10
-0.414, -5.622e-10
-0.416, -5.656e-10
-0.418, -5.707e-10
-0.420, -5.746e-10
-0.422, -5.787e-10
-0.424, -5.835e-10
-0.426, -5.868e-10
-0.428, -5.922e-10
-0.430, -5.977e-10
-0.432, -6.031e-10
-0.434, -6.086e-10
-0.436, -6.137e-10
-0.438, -6.194e-10
-0.440, -6.250e-10
-0.442, -6.301e-10
-0.444, -6.355e-10
-0.446, -6.418e-10
-0.448, -6.489e-10
-0.450, -6.553e-10
-0.452, -6.599e-10
-0.454, -6.657e-10
-0.456, -6.727e-10
-0.458, -6.796e-10
-0.460, -6.858e-10
-0.462, -6.912e-10
-0.464, -6.977e-10
-0.466, -7.049e-10
-0.468, -7.106e-10
-0.470, -7.161e-10
-0.472, -7.224e-10
-0.474, -7.290e-10
-0.476, -7.367e-10
-0.478, -7.425e-10
-0.480, -7.499e-10
-0.482, -7.583e-10
-0.484, -7.642e-10
-0.486, -7.724e-10
-0.488, -7.807e-10
-0.490, -7.880e-10
-0.492, -7.937e-10
-0.494, -8.007e-10
-0.496, -8.068e-10
-0.498, -8.120e-10
-0.499, -8.147e-10